,time,ppg,ppg2,acc_x,acc_y,acc_z,hr_quality,reference_hr,estimated_hr,sampled_estimated_hr,hr_online
0,0.0,25837.0,-131806.0,772.0,-20.0,-596.0,0.0,87.34003199999998,,,92.0
1,0.04,46546.17649922013,-122252.90605784734,799.9301065448757,-27.980030441393048,-599.9900152206965,0.0,87.34233599999997,,,92.0
2,0.08,59762.08719509795,-117758.591585374,760.1390243903165,-12.055609756126636,-556.1529268293482,0.0,87.34444799999997,,,92.0
3,0.12,66443.01489359885,-113681.59671733635,795.7308206685951,-4.0598176292010715,-599.6710030393941,0.0,87.34636799999998,,,92.0
4,0.16,67854.27092845771,-110431.4705022949,803.9201217655722,-23.800304413930466,-596.0399391172139,0.0,87.34809599999997,,,92.0
5,0.2,68398.5214340174,-108958.87185355353,780.2453089245943,-16.081769641531412,-560.3679633868913,0.0,87.34963199999999,,,92.0
6,0.24,69979.31714284846,-108099.16471125087,807.6025531913372,-19.94322188447674,-607.3186626137209,0.0,87.35097599999997,,,92.0
7,0.28,71844.6810958785,-106866.74000000788,792.2673972603756,-20.0,-576.5347945207511,0.0,87.35212799999998,,,92.0
8,0.32,74592.79238962982,-105225.73248098612,792.0,-8.230502283192116,-587.7694977168079,0.0,87.35308799999997,,,92.0
9,0.36,79804.56368617172,-103107.66498097705,772.4191926886631,-15.832322924534783,-576.2515156131979,0.0,87.35385599999996,,,92.0
10,0.4,86197.21126325976,-101589.3707762694,783.7187214610783,-19.906240487026118,-579.9062404870261,0.0,87.35443199999997,,,92.0
11,0.44,101187.46851469946,-97941.3697487042,799.5968926121784,-8.302330540866226,-587.7984463060892,0.0,87.35481599999999,,,92.0
12,0.48,119248.09669942185,-91824.14600767201,784.4545703423794,-15.772714828810312,-568.5682129279742,0.0,87.35500799999998,,,92.0
13,0.52,139646.47165881435,-82595.9027702776,787.8762861491157,-27.628858447347056,-606.7628614911569,0.0,87.35500799999998,,,92.0
14,0.56,168047.2756637573,-66411.60946585772,803.5124274807122,-28.0,-580.8532519087537,0.0,87.35481599999999,,,92.0
15,0.6,202025.4496578485,-45849.37767681989,796.2806378133205,-20.280637813320464,-572.2806378133205,0.0,87.35443199999999,,,92.0
16,0.64,229952.330197466,-29512.70520571487,757.506240487643,-35.39750380494279,-575.8493759512357,0.0,87.35385600000001,,,92.0
17,0.68,264376.1930840029,-12733.53718228569,794.4231530839219,-39.84231530839219,-614.4231530839219,0.0,87.353088,,,92.0
18,0.72,314171.8868180483,3610.471354375055,796.0,-17.00529680404489,-573.8430441407489,0.0,87.35212799999998,,,92.0
19,0.76,362084.50074555626,15815.166488748806,788.3492460016612,-8.349246001661232,-572.0,0.0,87.35097599999999,,,92.0
20,0.8,393448.32380172453,24663.00410630558,784.187376425928,-27.063117870359818,-591.0631178703599,0.0,87.34963199999999,,,92.0
21,0.84,412233.98764044384,30833.73235909305,768.790015221005,-24.197503805251245,-572.9875190262562,0.0,87.34809599999998,,,92.0
22,0.88,425684.55902412604,36546.51664622751,798.386341462775,-27.79829268284687,-590.9914634142343,0.0,87.346368,,,92.0
23,0.92,436946.3225853179,41971.2408211796,792.4285323195585,-24.214266159779218,-584.4285323195585,0.0,87.34444799999999,,,92.0
24,0.96,434664.28398788994,42934.05430744264,803.3267579906063,-35.326757990606296,-587.7755859968688,0.0,87.342336,,,92.0
25,1.0,415497.695884604,37758.23475622322,781.3719512200573,-32.22865853667623,-561.6006097567335,0.0,87.34003200000001,,,92.0
26,1.04,389943.34699149354,29753.492887730838,802.5359270511065,-16.976048632595678,-601.3158662603619,0.0,87.337536,,,92.0
27,1.08,364990.885453772,21574.292612539048,770.2636405187804,-19.748484386802176,-581.509093679187,0.0,87.33484544,,,92.0
28,1.12,345158.6800004964,14773.215384786217,790.4492307686206,-27.48307692287355,-602.4492307686206,0.0,87.33195776000001,,,92.0
29,1.16,330379.6920155903,9502.600425991903,780.81326235773,-16.813262357729922,-592.81326235773,1.0,87.3288704,,,92.0
30,1.2,319948.9055600634,5207.083473078141,780.0,-19.721553693721972,-573.3922315313902,1.0,87.32558080000001,,,92.0
31,1.24,312019.0159758287,1564.446158638042,791.1523170728327,-23.717439024277578,-590.5871951213879,1.0,87.3220864,,,92.0
32,1.28,306239.64738618204,-1400.046443684123,780.8932522799831,-35.1067477200169,-577.1910030399774,1.0,87.31838464,,,92.0
33,1.32,301889.76843881747,-4047.2146229219634,783.6946230006417,-28.61075399871646,-598.1677380038507,1.0,87.31447296,,,92.0
34,1.36,296832.87201235356,-7339.706158433064,787.6904878047545,-24.30951219524552,-600.0,1.0,87.31034880000003,,,92.0
35,1.4000000000000001,289548.3379941586,-14233.060790044648,773.2984802436683,-24.0,-574.2723404264196,1.0,87.30600960000002,,,92.0
36,1.44,283075.36000020907,-21896.729230516936,794.0061538453695,-9.329230769753728,-594.0061538453695,1.0,87.30145280000002,,,92.0
37,1.48,278608.4458233152,-27481.942621769747,785.0093902443059,-15.32707317046276,-596.0,1.0,87.29667584000002,,,92.0
38,1.52,275425.19699327275,-31053.107972547514,784.0,-16.0,-588.708519362462,1.0,87.29167616000002,,,92.0
39,1.56,272931.08432605746,-33434.044782858924,780.3622848440107,-34.18857577994682,-580.7245696880212,1.0,87.28645120000003,,,92.0
40,1.6,270540.9421816276,-35806.42151021084,790.9089244846894,-28.727383676873735,-601.8178489693788,1.0,87.28099840000003,,,92.0
41,1.6400000000000001,267795.299620453,-38718.169384855275,784.7622171605095,-13.524434321018992,-589.524434321019,1.0,87.27531520000002,,,92.0
42,1.68,265299.3405941536,-41780.4986442086,769.5568621483634,-22.832353388727483,-566.335293222545,1.0,87.26939904000002,,,92.0
43,1.72,263475.7227377112,-44543.07565008338,782.3934296571709,-27.598357414292746,-574.7950722428783,1.0,87.26324736000002,,,92.0
44,1.76,262122.11539990004,-46520.936755445924,784.0,-6.455201828833854,-590.3631987807775,1.0,87.25685760000002,,,92.0
45,1.8,261167.29748670917,-48070.592688437806,784.0,-14.751561309486878,-584.832292460342,1.0,87.25022720000001,,,92.0
46,1.84,260065.86672759647,-49132.268980170855,787.574185692375,-23.148371384749854,-584.0,1.0,87.24335360000002,,,92.0
47,1.8800000000000001,258922.07148293874,-49963.87294293114,784.4385095058739,-31.122980988252298,-580.4385095058739,1.0,87.23623424000002,,,92.0
48,1.92,257894.00231359067,-50747.25412477569,787.5511719937375,-17.795312025049867,-587.102343987475,1.0,87.22886656000001,,,92.0
49,1.96,256906.874508053,-51268.90077801025,780.9014187646585,-19.54929061767075,-580.9014187646585,2.0,87.221248,,,92.0
50,2.0,256351.47948330545,-51597.95896655131,790.604863221341,-27.069908814227325,-604.7446808497956,2.0,87.21337600000001,,,92.0
51,2.04,254610.24692082006,-53100.56298772786,792.0,-10.351829269219461,-593.8814634153756,2.0,87.205248,,,92.0
52,2.08,249711.8349774195,-58712.96210016625,784.9592694067701,-25.60182648307475,-570.8778082203103,2.0,87.19687168000002,,,92.0
53,2.12,245548.92413393178,-65012.63109392021,787.5050455925132,-28.0,-585.5252279625656,2.0,87.18825472000002,,,92.0
54,2.16,243400.047591556,-69164.64804859168,798.4989024384356,-17.501097561564386,-591.4996341461452,2.0,87.17940480000001,,,92.0
55,2.2,241890.0968822021,-71466.60897327993,789.5367300386212,-22.975513307585913,-585.024486692414,2.0,87.17032960000002,,,92.0
56,2.24,240921.45838665144,-72535.53656007492,774.0904718425176,-34.4321461181118,-577.0452359212588,2.0,87.1610368,,,92.0
57,2.2800000000000002,240090.9071744523,-73434.15603955754,785.8801523220966,-32.52996191947585,-582.9400761610483,2.0,87.15153408000003,,,92.0
58,2.32,238676.67102669537,-75093.46107975421,801.8313003793869,-25.084349810306563,-587.4578250948467,2.0,87.14182912000001,,,92.0
59,2.36,237014.35247533806,-77275.65498845525,800.5499466871906,-20.54994668719066,-588.0,3.0,87.13192960000002,,,92.0
60,2.4,235818.79070836256,-78858.0889565074,782.7844630627803,-33.77242954977577,-567.3413556753363,3.0,87.12184320000001,,,92.0
61,2.44,235202.55436408147,-79703.12603194661,776.5638385379215,-22.25535415168582,-574.3084843862356,3.0,87.11157760000003,,,92.0
62,2.48,234689.91638300742,-80263.90130696095,786.2641945282014,-20.0,-579.4213981760671,3.0,87.10114048,,,92.0
63,2.52,234179.9726123674,-80625.99637469529,805.0656511793587,-20.0,-600.4787814152304,3.0,87.09053952000002,,,92.0
64,2.56,233888.37733029702,-80753.46175438061,790.9430968737802,-26.822761250487908,-576.7089549980484,3.0,87.07978240000003,,,92.0
65,2.6,233686.34305240322,-80940.99316627496,774.4200455590279,-34.78997722048604,-578.7899772204861,3.0,87.06887680000004,,,91.15125284743924
66,2.64,233397.75829270127,-81117.71756096529,792.33268292539,-29.22243902486999,-596.943902437825,3.0,87.05783040000004,,,91.0
67,2.68,233347.61769992407,-81274.21855292284,785.8530997722456,-24.617699924081858,-579.7061995444911,3.0,87.04665088000003,,,91.0
68,2.72,232512.66234048657,-81959.74510633457,797.4706382968868,-20.632340425778306,-589.4706382968868,3.0,87.03534592000004,,,91.0
69,2.7600000000000002,228717.07201855019,-86085.72901721863,779.844386901732,-23.359268849711334,-578.5629246011547,5.0,87.02392320000004,,,91.0
70,2.8000000000000003,224346.62557105505,-92569.57260230591,776.0,-27.349771689243696,-589.3990867569747,5.0,87.01239040000003,,,91.0
71,2.84,221989.40577959447,-97537.02339133742,789.348988592126,-17.988258555905446,-592.0,5.0,87.00075520000004,,,91.0
72,2.88,220879.1871646957,-100423.70932910174,785.336341463938,-22.66365853606201,-582.004512195907,5.0,86.98902528000005,,,91.0
73,2.92,220425.66013690576,-101718.92766532989,784.0,-20.679665399504252,-596.6016730024787,5.0,86.97720832000005,,,91.0
74,2.96,220150.68834096106,-102521.73089797063,780.6901674279702,-29.92949771608936,-583.450837139851,5.0,86.96531200000005,,,91.0
75,3.0,219130.15232300508,-103982.02589478748,783.302361005059,-32.0,-580.0,5.0,86.95334400000006,,,91.0
76,3.04,218085.6876278353,-106049.36445446518,797.2017696403893,-28.699557589902668,-599.802654460584,5.0,86.94131200000005,,,91.0
77,3.08,217586.93466973113,-107884.70050101531,796.7154441916227,-31.28455580837725,-590.8617767664911,5.0,86.92922368000006,,,91.0
78,3.12,217340.2613698783,-108988.32325716183,782.9082496206147,-22.181187215461037,-584.7270624051537,5.0,86.91708672000006,,,91.0
79,3.16,217505.24542681134,-109511.85118899374,776.7320731710188,-16.732073171018826,-584.0,6.0,86.90490880000006,,,91.0
80,3.2,218110.3172623076,-109713.74996196617,792.2828897323899,-12.74342205352203,-593.7697338394339,6.0,86.89269760000006,,,91.0
81,3.24,218668.7542682537,-109824.89987804128,792.7490243905382,-5.498048781076582,-596.0,6.0,86.88046080000005,,,91.0
82,3.2800000000000002,218924.31385549897,-109898.26439543228,775.801673005289,-23.437992393653204,-576.5620076063468,6.0,86.86820608000005,,,91.0
83,3.3200000000000003,219075.54594675737,-109928.74655513142,772.0,-24.77335361246827,-591.3598783251904,6.0,86.85594112000004,,,91.0
84,3.36,219547.49463410422,-109745.37817074949,775.2209756094508,-17.55804878109839,-592.7790243905492,6.0,86.84367360000005,,,91.0
85,3.4,219478.86524391934,-110084.44024386552,795.3024390225366,-19.21707317042278,-598.4341463408456,6.0,86.83141120000005,,,91.0
86,3.44,215966.94669737617,-113973.55243698842,783.9951404723238,-23.200971905535248,-583.9951404723238,6.0,86.81916160000004,,,91.0
87,3.48,211174.14800954206,-120649.8567194939,783.1964607166935,-24.0,-592.7858428667739,6.0,86.80693248000004,,,91.0
88,3.52,208245.08632238297,-126004.0702731642,790.3669300905477,-11.26613981890461,-605.5503951358215,6.0,86.79473152000004,,,91.0
89,3.56,206754.88273982704,-128987.47616418202,782.4832876722018,-14.344474885198805,-592.138812787003,7.0,86.78256640000004,,,91.0
90,3.6,205856.13079854517,-130419.56593146437,773.6803041831622,-31.799239542094476,-581.6803041831622,7.0,86.77044480000004,,,91.0
91,3.64,205337.48030491458,-131240.97496945158,775.1540243899132,-29.69195122017366,-589.4620731697395,7.0,86.75837440000004,,,91.0
92,3.68,204617.77012934405,-132349.0951481878,794.8576121652987,-15.4282585564675,-604.5717414435325,7.0,86.74636288000002,,,91.0
93,3.72,203286.08177111746,-134047.18760289848,774.8650992393493,-18.28372519016266,-582.8650992393493,7.0,86.73441792000004,,,91.0
94,3.7600000000000002,201976.09428582233,-135675.45951354335,777.3891793302852,-29.389179330285195,-601.0378115474272,7.0,86.72254720000002,,,91.0
95,3.8000000000000003,201421.8929277874,-136557.29688206976,789.3481368810958,-19.53581749187223,-598.6518631189042,7.0,86.71075840000003,,,90.22098859324201
96,3.84,201263.7522924689,-136830.4254379149,792.0,-22.215506473027016,-596.0,7.0,86.69905920000004,,,90.0
97,3.88,201054.17635950333,-136785.92941356573,779.5967707554075,-27.10080731114811,-592.8991926888519,7.0,86.68745728000003,,,90.0
98,3.92,201074.13974143635,-136565.29402283643,776.0,-31.08915589318076,-592.0,7.0,86.67596032000004,,,90.0
99,3.96,201169.1138508286,-136266.1091020068,788.313911718502,-22.764566211123444,-610.4708675777531,8.0,86.66457600000004,,,90.0
100,4.0,201356.43511448425,-135955.46564888317,782.7664122148325,-16.922137404944152,-594.4549618346091,8.0,86.65331200000004,,,90.0
101,4.04,201313.39368741622,-135665.877693501,761.631805768505,-37.42955993674413,-588.0,8.0,86.64217600000005,,,90.0
102,4.08,201454.19305934018,-135215.64815834182,798.6793302840113,-25.70885844970947,-606.2911415502905,8.0,86.63117056000003,,,90.0
103,4.12,199711.52926851355,-136742.35536565114,802.870487806001,-13.913658537334058,-618.0863414626659,8.0,86.62029824000004,,,90.0
104,4.16,194831.22978000442,-142135.2359537663,781.8059923976999,-21.097003801150016,-592.70898859655,8.0,86.60956160000005,,,90.0
105,4.2,190455.8041099671,-148009.6409431388,769.9567732123298,-30.0432267876702,-577.9567732123298,8.0,86.59896320000003,,,90.0
106,4.24,188351.76520958878,-151586.31235311096,786.083533889541,-22.958233055229506,-606.139223149235,8.0,86.58850560000003,,,90.0
107,4.28,187428.55784037558,-153026.33213678814,782.9927908756887,-20.0,-600.9879847928145,8.0,86.57819136000003,,,90.0
108,4.32,186855.78811886287,-153550.92709821122,777.0060624527913,-34.96968773604347,-596.0,8.0,86.56802304000003,,,90.0
109,4.36,186066.36834738354,-153999.21175928297,776.0,-31.039025134470112,-601.9739832436866,9.0,86.55800320000002,,,90.0
110,4.4,184760.65703436563,-154944.70494285508,793.8530798455155,-22.04897338482817,-618.8775665379296,9.0,86.5481344,,,90.0
111,4.44,183519.40874345388,-156134.67884222273,788.131972583486,-14.065986291743014,-609.1649657293575,9.0,86.5384192,,,90.0
112,4.48,182644.22821028435,-156839.98802736454,775.1198172137107,-26.80030464381547,-595.1198172137107,9.0,86.52886016000001,,,90.0
113,4.5200000000000005,182224.80185554363,-156947.51376426267,786.7431178686737,-26.102752852530536,-594.9486235737347,9.0,86.51945984000001,,,90.0
114,4.5600000000000005,182243.2142161204,-156624.8546423575,794.9378386601647,-26.937838660164694,-601.8756773203294,9.0,86.5102208,,,90.0
115,4.6000000000000005,182550.705487766,-155922.6042683767,787.2030487817417,-25.067682927247226,-604.0,9.0,86.5011456,,,90.0
116,4.64,182644.89085106456,-155297.0784499072,769.4024316130439,-24.0,-583.5634042582614,9.0,86.4922368,,,90.0
117,4.68,182677.92118811372,-154691.7520792741,790.1908910852848,-24.0,-610.921188113713,9.0,86.48349696,,,90.0
118,4.72,183063.7712632631,-153751.07421624774,794.1981126340376,-18.198112634037546,-600.7924505361502,9.0,86.47492864000002,,,90.0
119,4.76,183418.20821914624,-152882.2536987163,771.7632876742557,-24.67287671103325,-583.3271232889667,10.0,86.46653440000001,,,90.0
120,4.8,183593.70297028287,-151985.61782188425,772.6495049491876,-28.0,-591.5326732655835,10.0,86.45831680000002,,,90.0
121,4.84,183480.4364356664,-151534.88837778976,787.504889564122,-19.371332826908542,-607.504889564122,10.0,86.45027840000002,,,90.0
122,4.88,180232.63610695637,-154459.8472086624,803.4596501883445,-16.0,-600.5403498116555,10.0,86.44242176000002,,,90.0
123,4.92,175080.33790015153,-160066.09095821314,773.7512328820686,-30.270319632471423,-584.5837442940228,10.0,86.43474944000002,,,90.0
124,4.96,171666.8183844394,-164402.14896300927,782.7873170695653,-24.606341465217312,-605.6357317032611,10.0,86.42726400000002,,,90.0
125,5.0,170261.49696059118,-166327.04407280634,794.8358662609453,-11.49240121716424,-604.6565349562189,10.0,86.41996800000003,,,89.29103343476369
126,5.04,169578.9739726696,-166720.24109588584,781.8794520570807,-27.76876712008698,-585.8794520570807,10.0,86.41286400000001,,,89.0
127,5.08,169005.68179747622,-166570.7686519685,773.1837319121139,-41.63253617577215,-580.0,10.0,86.40595200000003,,,89.0
128,5.12,167939.40286164015,-166879.8644748235,786.0359208500367,-29.964079149963286,-596.843105020044,10.0,86.39923200000003,,,89.0
129,5.16,166714.64438370278,-167802.2368339668,797.5943987814077,-24.0,-604.0,11.0,86.39270400000002,,,89.0
130,5.2,165619.79893386347,-168635.56740280858,794.4213252103882,-29.578674789611746,-595.6319878155824,11.0,86.38636800000002,,,89.0
131,5.24,165003.34783275067,-168820.96754373205,775.3310418279452,-29.221840304657533,-572.5528821326027,11.0,86.38022400000003,,,89.0
132,5.28,165042.1855707468,-168559.7151903014,787.3707153695541,-22.465509894413128,-586.1379604223475,11.0,86.374272,,,89.0
133,5.32,165287.57150681963,-167850.29589051593,787.7282191795301,-22.75726027348996,-587.7282191795301,11.0,86.36851200000001,,,89.0
134,5.36,165336.50632140622,-167096.7985987146,789.4987357187525,-29.498735718752535,-589.4987357187525,11.0,86.362944,,,89.0
135,5.4,165270.5634703292,-166268.64566220922,792.0,-26.519330290173105,-586.5193302901731,11.0,86.357568,,,89.0
136,5.44,165418.27426826154,-165576.7722866599,797.4690243892553,-24.0,-597.6725609731384,11.0,86.352384,,,89.0
137,5.48,165476.8860532358,-164862.9189962931,789.1024790894396,-24.0,-593.1024790894396,11.0,86.347392,,,89.0
138,5.5200000000000005,165287.77757809858,-164247.33544561296,764.9915613134854,-32.146473722791995,-582.5690175181387,11.0,86.34259200000001,,,89.0
139,5.5600000000000005,165331.46022811293,-163644.70071490854,769.5221292750464,-27.886722434972175,-598.9309809850649,12.0,86.33798400000002,,,89.0
140,5.6000000000000005,165591.11972578138,-163107.10495055784,786.7820258928634,-18.608987053568274,-597.2179741071366,12.0,86.333568,,,89.0
141,5.64,163397.8169434018,-164876.1349958301,797.3689429647569,-10.631057035243103,-594.6844714823784,12.0,86.329344,,,89.0
142,5.68,158287.4660175243,-169884.77970980335,773.2447829449894,-29.404173644008477,-577.2713480614926,12.0,86.325312,,,89.0
143,5.72,154038.43719983383,-174856.53147583178,781.3323592043721,-29.333820397813934,-591.9989041049187,12.0,86.32147200000001,,,89.0
144,5.76,152303.23749821066,-177591.76872591642,792.0,-16.01208238143397,-588.0241647628679,12.0,86.31782400000002,,,89.0
145,5.8,151547.92118460042,-178409.46332570317,789.3503416861741,-27.897949882954833,-590.5986332553032,12.0,86.31436800000002,,,89.0
146,5.84,151124.041949772,-178326.89459257197,785.3614013714365,-36.0,-601.2771972571269,12.0,86.31110400000001,,,89.0
147,5.88,150527.9961644844,-178382.91780818917,789.2592998467261,-25.481400306547798,-611.8889497700892,12.0,86.30803200000003,,,89.0
148,5.92,149551.21175052767,-179241.97004550177,781.5213394237617,-27.858995432178723,-597.6623439915829,12.0,86.30515200000004,,,89.0
149,5.96,148487.43716693565,-180386.57285590304,776.0,-37.22333587096651,-598.446671741933,13.0,86.30246400000003,,,89.0
150,6.0,148168.54794519595,-181003.73972597977,783.8082191764491,-26.986301372584688,-598.7945205490339,13.0,86.29996800000004,,,89.0
151,6.04,148406.7396197267,-181087.78594677613,790.5907832694145,-12.227650191756709,-596.0,13.0,86.29766400000003,,,89.0
152,6.08,148848.2930387728,-180663.6108150139,789.4183092160889,-23.490144703466296,-588.2549276482669,13.0,86.29554688000002,,,89.0
153,6.12,149539.62748847384,-179860.5505024086,782.8544292248547,-37.145570775145266,-586.5727853875726,13.0,86.29361152000001,,,89.0
154,6.16,150514.03406377646,-178903.0661493013,790.2512024330766,-29.74879756692338,-595.6884018248074,13.0,86.29185280000002,,,89.0
155,6.2,151388.9591773487,-177930.66412808705,785.7809596366766,-29.109520181661694,-594.8904798183383,13.0,86.29026560000001,,,89.0
156,6.24,152299.5593910309,-176932.16535783096,780.0,-32.0,-594.5458751896927,13.0,86.2888448,,,89.0
157,6.28,153413.31972606695,-175924.97554386914,772.398114070149,-29.466038023382993,-588.398114070149,13.0,86.28758528,,,89.0
158,6.32,154581.3767986138,-174824.88655504445,778.1068292659958,-28.0,-601.6869512154925,13.0,86.28648192000001,,,89.0
159,6.36,155406.66936776877,-173770.93023624417,784.0,-28.0,-596.8746991656885,13.0,86.28552960000002,,,89.0
160,6.4,153584.5246205359,-175311.11823664102,786.5082066863504,-30.50820668635035,-600.5410334317518,13.0,86.2847232,,,89.0
161,6.44,149651.20584983483,-179995.44804181956,785.5021477538215,-29.50214775382156,-598.0085910152862,13.0,86.2840576,,,89.0
162,6.48,146913.6107683224,-184229.74926186146,779.02576425973,-28.0,-587.02576425973,13.0,86.28352768,,,89.0
163,6.5200000000000005,146075.71615857584,-186065.56506084217,780.9595121939371,-32.95951219393713,-588.9595121939371,13.0,86.28312831999999,,,89.0
164,6.5600000000000005,146268.56012169493,-186223.82964996825,784.0,-31.055829529348575,-594.4720852353257,13.0,86.28285439999999,,,89.0
165,6.6000000000000005,146844.23610043727,-185783.5232293254,781.5360243722672,-25.53602437226716,-598.4639756277328,13.0,86.28270079999999,,,89.0
166,6.640000000000001,147095.51571428435,-185651.7042856967,777.548571429173,-28.90285714165418,-595.0971428583458,13.0,86.28266239999999,,,89.0
167,6.68,146868.94099015617,-186052.15741042205,778.440944401526,-32.0,-589.559055598474,13.0,86.28273407999998,,,89.0
168,6.72,146845.43141549418,-186514.91817345686,782.4321461181119,-32.0,-595.2964383543355,13.0,86.28291072,,,89.0
169,6.76,147299.22392684588,-186392.69022837994,786.4221613388083,-27.15567732238334,-602.4221613388083,14.0,86.2831872,,,89.0
170,6.8,148266.54817054665,-185664.3932928235,780.7524390262438,-26.41585365791873,-587.0890243945689,14.0,86.28355839999999,,,89.0
171,6.84,149438.799147461,-184601.98636243356,776.0,-35.22484018078678,-583.2248401807868,14.0,86.28401919999999,,,89.0
172,6.88,150714.77981741712,-183317.83221905844,790.3679027318229,-25.63209726817702,-597.5786018212153,14.0,86.28456447999999,,,89.0
173,6.92,152004.78987785277,-182010.49146361428,792.8424390262766,-25.543414631631315,-599.2282926841843,14.0,86.28518912,,,89.0
174,6.96,153099.15863102177,-180600.2706618353,780.8704486710943,-39.129551328905634,-598.3765171096352,100.0,86.285888,82.07179,82.07179,89.0
175,7.0,154366.9246573023,-179127.80593630375,778.3652968030179,-36.90410959094627,-607.0958904090537,91.0,86.28665600000001,82.07179,,89.0
176,7.04,155911.55655724497,-177773.24408246067,777.6428941362066,-29.642894136206575,-604.9286824086197,91.0,86.28748800000001,82.07179,,89.0
177,7.08,157395.10417024672,-176396.41211590887,776.0,-35.0451141533242,-597.6516286155586,91.0,86.28838144000004,82.07179,,89.0
178,7.12,157998.57175932298,-175531.88073122437,785.3606702182825,-37.65983244542937,-612.3811728819944,91.0,86.28933376000002,82.07179,,89.0
179,7.16,155924.6929686192,-177756.378020636,787.3371080682703,-26.67421613654045,-605.3484322730809,91.0,86.29034240000003,82.07179,,89.0
180,7.2,152427.69961975553,-182350.70327413655,774.7070830186087,-24.64645849069565,-585.0303122639565,91.0,86.29140480000002,82.07179,,89.0
181,7.24,150546.64267489614,-185733.9607291101,777.2440121554314,-32.62200607771569,-598.4880243108628,91.0,86.2925184,82.07179,,89.0
182,7.28,150570.56621941348,-186742.76548779116,788.6039024377014,-26.792195124597086,-616.6039024377014,91.0,86.29368064,82.07179,,89.0
183,7.32,151132.04347023048,-186527.89394223373,780.5272450565928,-29.178203954725685,-606.2326940679114,89.0,86.29488896000001,81.63265,,89.0
184,7.36,151714.26777175986,-185997.29283660266,783.4141444833559,-40.56565779334239,-605.1313155866848,89.0,86.29614080000002,81.63265,,89.0
185,7.4,152073.2039603685,-185836.31881185214,778.3603960436351,-34.906930695756735,-600.6336633696959,89.0,86.2974336,81.63265,,89.0
186,7.44,152157.58757990462,-186136.3273667517,774.793789952313,-23.470806698458016,-598.793789952313,89.0,86.2987648,81.63265,,89.0
187,7.48,152293.6946118343,-186443.71305932017,768.7269406426624,-29.01844748587006,-599.490776257065,89.0,86.30013184,81.63265,,89.0
188,7.5200000000000005,152954.2689107199,-186296.41029710617,775.7243564308643,-27.014653468077544,-604.9853465319225,89.0,86.30153216,81.63265,,89.0
189,7.5600000000000005,154059.20547508128,-185544.91677583553,792.4719695803784,-20.0,-605.2920456294324,89.0,86.3029632,81.63265,,89.0
190,7.6000000000000005,155301.45205457215,-184441.82739746643,787.1013698657716,-24.44931506711417,-604.4493150671142,89.0,86.30442239999999,81.63265,,89.0
191,7.640000000000001,156717.96756071146,-183024.3350002775,775.5639024404128,-25.78195122020637,-601.3458536606191,89.0,86.3059072,81.63265,,89.0
192,7.68,158058.68018243957,-181608.9731509065,778.6323287650331,-26.210776255011012,-598.2107762550111,89.0,86.30741504,81.63265,,89.0
193,7.72,159233.84374124155,-180302.19595460742,781.8008821299774,-32.39823574004518,-602.1991178700226,98.0,86.30894336,81.875015,,89.0
194,7.76,160449.4068543088,-178971.10964227503,769.052856058359,-38.18942878832821,-597.4317136350154,98.0,86.3104896,81.875015,,89.0
195,7.8,161758.0423455342,-177583.21492790192,773.0948971777768,-26.90510282222315,-609.4598629037025,98.0,86.31205119999998,81.875015,,89.0
196,7.84,163273.0177335452,-176202.47580251875,777.4833155914857,-20.34445627234281,-615.3110874553144,98.0,86.3136256,81.875015,,89.0
197,7.88,163782.77209452266,-175788.78732666757,774.162498095248,-21.837501904751996,-601.512505714256,98.0,86.31521024,81.875015,,89.0
198,7.92,161477.3756965159,-178320.27272924932,773.8477262364594,-24.30454752708116,-589.5431787093783,98.0,86.31680255999999,81.875015,,89.0
199,7.96,158261.66514507507,-182851.62155166757,780.5635311995467,-17.295586000566615,-607.5497107987535,98.0,86.31839999999998,81.875015,,88.46477930002833
200,8.0,156923.3739528162,-185904.7311497381,783.7349581126484,-8.0,-619.4699162252969,98.0,86.32,81.875015,,88.0
201,8.040000000000001,157107.38753988952,-186752.52070065917,767.2465498901375,-25.004600146483213,-599.2465498901375,98.0,86.32159999999999,81.875015,,88.0
202,8.08,157762.38892761455,-186386.34159710835,768.6924410602439,-37.88459315662602,-602.8078479036179,96.0,86.32318975999999,81.43766,,88.0
203,8.120000000000001,158737.63047162825,-185468.74307476744,775.7920243545935,-29.688036531890365,-603.3760730637807,96.0,86.32475904,81.43766,,88.0
204,8.16,159631.4642986587,-185209.68118894674,778.2915853636293,-24.0,-592.0,96.0,86.3262976,81.43766,,88.0
205,8.2,159481.9155895181,-185180.82950578464,777.7344486714316,-19.822965780954398,-598.2655513285684,96.0,86.3277952,81.43766,,87.4778707226193
206,8.24,159525.30392677282,-183742.88931551087,782.3853881241162,-20.154155249646447,-628.9249314978787,96.0,86.32924159999999,81.43766,,87.0
207,8.28,164610.46680714365,-179287.375020246,787.862665652684,-24.0,-631.3133282634201,96.0,86.33062656,81.43766,,87.0
208,8.32,178720.92985193522,-169123.90509764594,765.472730044811,-19.882828898846878,-599.6484866965407,96.0,86.33193984,81.43766,,87.0
209,8.36,200145.2445042333,-151310.04600565418,748.0,-16.0,-588.0,96.0,86.33317120000001,81.43766,,87.0
210,8.4,226842.93175370296,-124291.79345623945,754.1252094417334,-26.208682402888964,-602.2921553640446,96.0,86.3343104,81.43766,,87.0
211,8.44,251761.85231544843,-85373.20809998816,743.746433466197,-25.841520916373106,-613.9683041832747,96.0,86.3353472,81.43766,,87.0
212,8.48,258601.95226325365,-36320.97585170812,744.174013702904,-24.08700685145196,-628.174013702904,99.0,86.33627136,80.809006,,87.0
213,8.52,263977.24967706035,10593.291255293487,751.9469102009609,-23.94691020096092,-637.9601826507206,99.0,86.33707264,80.809006,,86.49668188756006
214,8.56,303332.6465633792,49206.51999302705,744.0,-9.990136988631122,-597.944109602243,99.0,86.33774079999999,80.809006,,86.0
215,8.6,357612.97411560325,78783.86209589706,738.0200913265415,15.933028911528158,-560.0133942176943,99.0,86.33826559999999,80.809006,,86.0
216,8.64,403302.04520869255,100813.56377929971,735.9757131944623,26.060717013844275,-639.4899770837081,99.0,86.3386368,80.809006,,86.0
217,8.68,456734.61925814196,123063.29263968127,740.0,-3.794528867517201,-724.0,99.0,86.33884416000001,80.809006,,86.0
218,8.72,528632.2050066995,153248.34227581584,710.5041096009076,-35.79835615963697,-731.8655707730913,99.0,86.33887744000002,80.809006,,86.0
219,8.76,611786.5840500882,189364.79161517957,693.7052855999162,-20.589428800167425,-714.5473267430126,99.0,86.33872639999998,80.809006,,86.0
220,8.8,692765.9524960583,218280.81399862544,733.3430745710521,-34.888280043318936,-635.3643835831995,99.0,86.3383808,80.809006,,86.0
221,8.84,763041.9532292599,238283.00115319516,791.0317199262854,-76.12103500921432,-632.3660273756067,97.0,86.33783040000002,80.4257,,85.51512937615179
222,8.88,812493.3069442487,253684.44347301757,831.7297560943337,-21.75658538683159,-668.675609764166,97.0,86.33706496,80.4257,,85.0
223,8.92,834576.2711228465,263092.2869897193,813.0825532028016,35.84534954245692,-628.7732522877154,97.0,86.33607424000002,80.4257,,85.0
224,8.96,843883.5643815406,268806.3288268455,837.4667884095074,43.81905631496482,-667.1953728819547,97.0,86.33484800000002,80.4257,,85.0
225,9.0,849253.6463413892,272813.0853654143,819.9024390571001,91.75609754216744,-629.2682927270852,97.0,86.333376,80.4257,,85.0
226,9.040000000000001,844822.612564737,271646.5909059352,781.4609277369858,153.25943725662086,-536.8362585461185,99.0,86.331648,79.988365,,85.0
227,9.08,833858.7680695204,267945.77911770315,958.1354032933621,168.0,-603.3002130708556,99.0,86.32966144,79.988365,,85.0
228,9.120000000000001,823940.4100167077,265103.2686764829,961.4251446578783,169.87263318029895,-549.0051750835581,99.0,86.32741376,79.988365,,84.53184170492527
229,9.16,817951.6712338427,258979.88347226713,858.0168036288685,164.54940639601813,-400.33497718307706,99.0,86.32490240000001,79.988365,,84.0
230,9.200000000000001,810187.0589513505,253941.79832446098,992.3089108585131,133.75110435122673,-351.0214775382156,99.0,86.32212480000001,79.988365,,84.0
231,9.24,805073.1518412519,256530.31092727173,1016.9368645625934,141.22301368354118,-193.87933035374053,99.0,86.31907840000001,79.988365,,84.0
232,9.28,820437.8118047506,264072.0369538049,856.2130898442261,141.44949773457498,39.92231351527268,99.0,86.31576064000001,79.988365,,84.0
233,9.32,846126.1152397593,273152.870486046,883.3117072544084,119.77097559874741,163.88487802845674,99.0,86.31216896000001,79.988365,,84.0
234,9.36,863225.4170616206,281102.3257474464,947.5150114518154,160.7433003742885,290.63933076368994,99.0,86.3083008,79.988365,,84.0
235,9.4,880025.256913734,287261.30855450855,804.2435135952136,164.53536431106647,423.4449352422745,97.0,86.30415360000002,79.64862,,84.0
236,9.44,899982.2084242516,291764.1425326715,743.0166844508163,139.24602183838064,519.2782330335049,97.0,86.29972480000002,79.64862,,84.0
237,9.48,919939.1599347692,296266.9765108344,681.7898553064191,113.95667936569484,615.1115308247354,97.0,86.29501184000002,79.64862,,84.0
238,9.52,932501.2916709846,298853.7614589174,517.673921035597,119.6381762823073,680.4970212705592,97.0,86.29001216000002,79.64862,,84.0
239,9.56,932617.729194186,296091.3061810182,419.7895890098728,179.43866056104048,736.7544596451966,97.0,86.28472320000003,79.64862,,84.0
240,9.6,930877.5462297463,291422.6262000553,510.5797410457986,261.0290936602951,807.3961919172974,97.0,86.27914240000003,79.64862,,84.0
241,9.64,934144.3128808355,291226.8433758683,511.72428897950135,306.2463269970716,842.5220380175703,97.0,86.27326720000003,79.64862,,84.0
242,9.68,940440.5924128208,293909.0783238181,461.1338918683008,290.05355674732033,864.7165270329248,97.0,86.26709504000002,79.64862,,84.0
243,9.72,948565.0375929546,296386.5788732308,424.6751902543428,289.3503805086856,884.6751902543427,97.0,86.26062336000003,79.64862,,84.0
244,9.76,955578.2739977442,297248.88697652397,417.00996192901624,441.4775323021621,918.4427722657081,97.0,86.25384960000002,79.64862,,84.0
245,9.8,957471.3153729002,296497.8073061468,374.8188736770795,536.4030441791499,898.1747336635307,95.0,86.24677120000003,79.332344,,84.0
246,9.84,956780.1269410098,297274.82063858066,386.1625570597714,330.0960731147087,792.713059381263,95.0,86.23938560000003,79.332344,,84.0
247,9.88,953798.173496883,299004.3378218026,448.9943640428196,204.9943640428196,741.699436404282,95.0,86.23169024000003,79.332344,,84.0
248,9.92,948290.6488294739,298998.08526633773,468.6175951311759,268.5888584258894,760.9120243441206,95.0,86.22368256000003,79.332344,,84.0
249,9.96,940249.9748159859,297377.7009590796,413.6018251221443,345.83920911373747,743.6814600977154,95.0,86.21536000000002,79.332344,,84.0
250,10.0,928047.130239526,286734.91927337367,489.2429549857486,411.05864430690485,746.4310738448414,95.0,86.20672000000003,79.332344,,84.0
251,10.040000000000001,902482.0392177196,268101.31960811175,698.6449923860065,516.4824352810554,859.5637138335309,95.0,86.19776000000002,79.332344,,84.0
252,10.08,856113.1145940337,246640.23133061166,678.2772602904333,483.71409443052573,806.5754642853091,95.0,86.18848000000003,79.332344,,84.0
253,10.120000000000001,822635.6810067175,222438.1361933523,552.1671951688463,297.6995122098341,756.7641462918099,95.0,86.17888000000002,79.332344,,84.0
254,10.16,834526.7476332033,206666.31540598403,386.15330291774177,299.2971689276499,893.8242922319125,95.0,86.16896000000001,79.332344,,84.0
255,10.200000000000001,854323.9212763985,188916.76413999015,428.8699087526842,388.4984802246818,787.7556231686772,93.0,86.15872,79.02971,,84.0
256,10.24,858204.860683508,166984.1662181555,560.586626063025,513.4024675867527,636.1882711208602,93.0,86.14816,79.02971,,84.40313785201434
257,10.28,857347.5680155879,142991.3405115669,479.8598629327013,534.874882003867,739.4354302730618,93.0,86.13728000000003,79.02971,,85.0
258,10.32,736519.2923546752,80447.43077612476,584.4114980024983,463.0415817097566,680.3771864053415,93.0,86.12608000000002,79.02971,,85.0
259,10.36,502791.48073919315,-2116.738630820597,858.9555521546115,521.1882406956171,298.879756367034,93.0,86.11456000000003,79.02971,,85.0
260,10.4,408793.8596168735,-43873.47345583511,890.5423574201054,457.5762737633158,131.28821289947277,93.0,86.10272000000002,79.02971,,85.0
261,10.44,416070.04018289346,-57668.90382155399,916.7065346288209,409.89964968760506,166.42473726570378,93.0,86.09056000000001,79.02971,,85.0
262,10.48,409094.4638883267,-64393.97836878526,858.4221782920384,307.0609596496489,-1.1083015327860437,93.0,86.07808000000001,79.02971,,85.0
263,10.52,391010.8507282021,-68360.71305377998,798.3465041086498,303.69011422022555,-265.1046457918927,93.0,86.06528000000003,79.02971,,85.0
264,10.56,366233.9089441213,-75686.8474427304,928.4774468553827,433.9812765498292,-205.46893629839354,93.0,86.05216,79.02971,,85.0
265,10.6,329612.80260165205,-96173.63749370165,838.5975609563473,486.21524394385335,-85.59329255097884,91.0,86.03872000000001,78.73059,,85.0
266,10.64,336317.5616560268,-99334.46217286537,1121.474268144769,468.50658530978166,-617.7989023162461,91.0,86.02496000000001,78.73059,,85.0
267,10.68,399457.0573057586,-78487.588276247,1383.2453151845352,408.8165225289315,-910.7718754880973,91.0,86.01088000000001,78.73059,,85.0
268,10.72,470309.5793705359,-41321.972301545255,926.184554627717,32.44831685990844,-679.2665347809657,91.0,85.99648000000002,78.73059,,85.0
269,10.76,603653.1767886974,41622.71770174135,518.3812337932202,106.49395268415549,-73.96045715048035,91.0,85.98176,78.73059,,85.0
270,10.8,761559.497281242,106689.69169081667,792.9015968152326,319.3161977401704,411.3131558808084,91.0,85.96672,78.73059,,85.0
271,10.84,964721.2930316953,184570.40275494164,1083.3077228234547,178.4586139184686,411.5532673483846,91.0,85.95136,78.73059,,85.0
272,10.88,1077670.41601935,239877.0257265537,784.9132776789792,134.597110197118,505.4986462872291,91.0,85.93567999999999,78.73059,,85.0
273,10.92,1120752.6292442072,264485.18194423907,561.4191780376108,266.9334551296459,730.5635312252211,91.0,85.91967999999999,78.73059,,85.0
274,10.96,1144866.9888425185,279582.4327101162,506.82085377504916,174.98621952115764,657.5402439123974,91.0,85.90335999999999,78.73059,,85.0
275,11.0,1146256.4965751083,291338.2524691983,374.89885919991553,177.89809884136622,667.9695817241197,90.0,85.88672000000001,78.43866,,85.0
276,11.040000000000001,1158471.770407502,300456.71944977297,619.2065753795241,224.0,774.8054794220075,90.0,85.86976,78.43866,,85.0
277,11.08,1170138.904765731,309323.97705803567,453.10281802440363,209.82056360488073,819.3872962912257,90.0,85.85249024,78.43866,,85.0
278,11.120000000000001,1178290.3195099926,317354.32356524264,331.0603658486067,209.41731705498404,803.7742682613614,90.0,85.83492096,78.43866,,85.0
279,11.16,1186477.9555604768,323692.5714273836,335.57665654101993,251.78832827050996,913.4817021064301,90.0,85.81706240000001,78.43866,,85.0
280,11.200000000000001,1193643.5721231082,328940.8004553621,331.12810357145383,269.03823303577104,961.0449352678414,90.0,85.7989248,78.43866,,85.0
281,11.24,1200141.1055499387,335404.04358762753,310.541140714979,328.4376577855063,931.4164562859916,90.0,85.78051839999999,78.43866,,85.0
282,11.28,1205744.0368910988,341661.78196360415,223.77383092769847,347.8869154638492,850.6429855661908,90.0,85.76185344,78.43866,,85.0
283,11.32,1211138.6980338967,348357.47798692604,232.55348056032744,357.7330692935698,833.7526884410369,90.0,85.74294016,78.43866,,85.0
284,11.36,1215610.2678619367,355338.4437104213,285.42028896926473,370.3188441229411,935.2173992766174,90.0,85.7237888,78.43866,,85.0
285,11.4,1219996.8118711044,357260.66666638356,266.4523592312768,326.6569254196035,848.058447482379,88.0,85.70440959999999,78.158134,,85.0
286,11.44,1223497.1040237485,358896.5504870975,213.34048780072027,334.68097560144054,901.3834146050418,88.0,85.6848128,78.158134,,85.0
287,11.48,1225736.9344702116,361365.7913780086,235.9718507141533,389.2551408726481,950.7260929367875,88.0,85.66500863999998,78.158134,,85.0
288,11.52,1227755.1617926615,362911.7223098488,212.47124623817513,374.1449240768572,892.0785410396959,88.0,85.64500736,78.158134,,85.0
289,11.56,1229008.077195459,363869.54515204433,174.86768287956352,262.9431706875926,887.7735365759127,88.0,85.62481919999999,78.158134,,85.0
290,11.6,1228444.598630936,364620.74144507723,289.4935361269309,396.8206843938211,895.0831939300203,88.0,85.6044544,78.158134,,85.0
291,11.64,1229117.351530805,364319.6936784031,270.83905560209473,425.8074029057605,879.3535414921447,88.0,85.58392319999999,78.158134,,85.0
292,11.68,1231986.950317349,370044.1836486519,258.7176864546365,384.4591780917285,893.0714155473665,88.0,85.56323583999999,78.158134,,85.0
293,11.72,1239633.4410943992,385865.51177685114,238.1873972751597,367.63397259636014,855.0849314909003,88.0,85.54240256,78.158134,,85.0
294,11.76,1244605.8395119684,397786.1450518068,177.27780823838222,378.9506240529738,904.8364079072958,88.0,85.52143360000001,78.158134,,85.0
295,11.8,1250235.4823413016,403848.52313349687,146.785388111796,396.80426177142056,924.0,86.0,85.5003392,77.89416,,85.0
296,11.84,1258946.1806229537,409281.87524719286,190.48664127736262,442.5935110584616,920.270038083956,86.0,85.47912960000001,77.89416,,85.31083015967033
297,11.88,1263777.5762550058,409076.39525206335,205.88347031101245,396.58739726674065,908.2936986333704,86.0,85.45781504000001,77.89416,,86.0
298,11.92,1267117.1639560238,407643.6476095279,210.8437138659769,365.29461188512306,882.843713865977,86.0,85.43640576000001,77.89416,,86.0
299,11.96,1269415.0991791417,409822.58532718295,187.80103499350483,367.24846267781845,865.8783561448529,86.0,85.41491200000003,77.89416,,86.0
300,12.0,1267022.9863010745,408456.4657548024,232.43835615676286,434.7397260393726,902.7397260393726,86.0,85.39334400000003,77.89416,,86.0
301,12.040000000000001,1269950.8228290677,405824.09284544486,241.24054795503616,392.04505328337353,873.1954946716627,86.0,85.37171200000002,77.89416,,86.0
302,12.08,1275617.596617898,408941.29014378577,211.25434882388438,381.79619191043355,883.1184767641735,86.0,85.35001856000002,77.89416,,86.0
303,12.120000000000001,1277381.8831959767,410293.9661501052,205.89284626543068,405.1428919506218,889.3928767222247,86.0,85.32826624000003,77.89416,,86.0
304,12.16,1279434.8515971324,409031.73004457104,217.66283105243468,372.8544292116093,874.5172602640439,86.0,85.30645760000002,77.89416,,86.0
305,12.200000000000001,1282519.7511411582,412276.90228268,212.0,413.2687975558335,908.1101978613543,84.0,85.28459520000003,77.6448,,86.0
306,12.24,1283738.4635310029,412574.0199398848,212.0,423.36523593306725,900.433242035783,84.0,85.26268160000002,77.6448,,86.0
307,12.280000000000001,1284413.6632443191,410758.54138598643,208.5815080002983,401.1159786658712,863.9059253305492,84.0,85.24071936000003,77.6448,,86.0
308,12.32,1285010.992145932,411641.5678533948,209.05351597279355,420.6049315102024,924.7612785578137,84.0,85.21871104000003,77.6448,,86.0
309,12.36,1285608.6202738541,412395.04779349326,230.87829528270427,401.90465754433853,868.1480669789299,84.0,85.19665920000001,77.6448,,86.0
310,12.4,1286052.6271133393,411729.9581105836,221.32460015907782,379.3376999204611,861.3507996818444,84.0,85.17456640000002,77.6448,,86.0
311,12.44,1286433.4909809697,414402.0072688362,218.3512091108148,385.79212167525924,892.688182512889,84.0,85.15243520000003,77.6448,,86.0
312,12.48,1286461.78723536,418153.40822454565,240.70385378585547,392.01840059682786,873.0741812756111,84.0,85.13026816000001,77.6448,,86.0
313,12.52,1286872.569771203,421670.73342337203,197.8303805197755,426.1696194802245,854.8480974011226,84.0,85.10806784000002,77.6448,,86.0
314,12.56,1288329.6748512639,425662.983365602,193.0756435632161,428.77306931035173,893.6807920689448,84.0,85.08583680000002,77.6448,,86.0
315,12.6,1289414.3899537842,427526.4432268104,198.1357686430715,397.57442924774944,895.4386606046779,83.0,85.06357760000002,77.40107,,86.0
316,12.64,1291788.6964373223,428177.99926863896,214.57899542232263,365.6211871825034,834.3473972533936,83.0,85.04129280000001,77.40107,,86.0
317,12.68,1295361.8550979237,430731.4744590235,233.52085237071213,443.80834094828487,869.8145509697894,83.0,85.01898496000001,77.40107,,86.0
318,12.72,1298339.2556464537,432239.43634718604,205.0379299836253,416.4310502456203,898.2034703438685,83.0,84.99665664000001,77.40107,,86.0
319,12.76,1299517.3557043986,431865.08892609965,214.17236861452653,387.4309215363163,852.4596496387375,83.0,84.97431040000001,77.40107,,86.0
320,12.8,1299964.1799084446,431851.7219178927,222.8109589145608,420.76894978446325,900.0,83.0,84.95194880000001,77.40107,,86.0
321,12.84,1300909.0876403858,431545.52474896156,202.06611871447194,388.0,889.8898021425467,83.0,84.92957440000002,77.40107,,86.0
322,12.88,1302179.1611573868,431303.54044171015,227.0125818653862,399.01977150274973,874.0251637307724,83.0,84.90718976000002,77.40107,,86.0
323,12.92,1303222.1284014054,431234.0635009225,241.04133942981832,425.0413394298183,906.059056328312,83.0,84.88479744000001,77.40107,,86.0
324,12.96,1304604.1216434746,430906.3556163352,215.07945206067333,400.06356164853867,871.0794520606734,83.0,84.86240000000002,77.40107,,86.0
325,13.0,1305555.0837138204,431282.2937593782,206.818873659933,393.84474885137115,861.8447488513712,81.0,84.84000000000002,77.16197,,86.0
326,13.040000000000001,1305884.8322007572,431653.8103883918,225.10537700279016,408.14050267038687,872.2810053407737,81.0,84.8176,77.16197,,86.0
327,13.08,1307111.5685230533,431988.6578383461,221.74319633991206,404.6147945098681,855.6575951198828,81.0,84.79521023999999,77.16197,,86.0
328,13.120000000000001,1308584.4062099308,432832.4149771219,235.26392694659066,426.3167123359088,880.9472146106818,81.0,84.77284096,77.16197,,86.0
329,13.16,1309282.7117498661,433091.2414001283,216.25108067448645,403.31385084310807,876.5021613489729,81.0,84.7505024,77.16197,,86.0
330,13.200000000000001,1311090.1945199175,434108.6194817657,207.70898020829966,389.8544901041498,857.5634703124495,81.0,84.7282048,77.16197,,86.0
331,13.24,1312904.4431985242,436184.7214620359,226.42571210125794,402.42571210125794,880.5897943580414,81.0,84.7059584,77.16197,,86.0
332,13.280000000000001,1313820.0273969215,436761.4096804984,238.89680366501597,419.448401832508,887.8071232985144,81.0,84.68377344,77.16197,,86.0
333,13.32,1314861.1890408648,436494.7277928982,210.70100456258479,404.9003348541949,860.0,81.0,84.66166015999997,77.16197,,86.0
334,13.36,1315344.709528307,436605.7600001991,220.89035007489144,405.32894977532567,868.013150674023,81.0,84.63962879999998,77.16197,,86.0
335,13.4,1315117.6217819648,435774.7434886372,225.76207158934136,398.643107384012,885.427570463952,80.0,84.61768959999996,76.922485,,86.0
336,13.44,1315792.0832874938,434420.67863044457,231.12657534368506,408.0,852.3671232815747,80.0,84.59585279999999,76.922485,,85.78164383592127
337,13.48,1316416.881795802,433841.16831020603,228.0,413.1806392620688,874.0440791390802,80.0,84.57412863999997,76.922485,,85.0
338,13.52,1316963.3765906647,434307.6248101629,231.41382039083194,426.0258143160441,889.1723592183362,80.0,84.55252735999997,76.922485,,85.0
339,13.56,1316371.8967864693,432456.80228596576,238.93532369360156,403.1558872822669,867.3764508709323,80.0,84.53105919999999,76.922485,,85.0
340,13.6,1314309.8091336358,429081.8009139783,225.01917807478884,405.8557077539203,880.0,80.0,84.5097344,76.922485,,85.0
341,13.64,1310156.3060593908,426297.81869236147,247.30617959931197,422.21418570120403,878.346910200344,80.0,84.4885632,76.922485,,85.0
342,13.68,1306002.0726943284,422334.4015228643,269.7987214462942,402.44968036157354,867.1006392768529,80.0,84.46755583999999,76.922485,,85.0
343,13.72,1305619.8350033516,420584.56130953337,291.85620718409064,409.5784310776136,849.6143792815909,80.0,84.44672256,76.922485,,85.0
344,13.76,1306930.4289275375,421861.23038761533,230.39707984416657,401.59805322944436,859.1961064588887,80.0,84.42607360000001,76.922485,,85.0
345,13.8,1307572.7044933995,422236.76207188185,246.29763898464532,406.42559025383866,871.2127951269193,78.0,84.40561920000002,76.68539,,85.0
346,13.84,1308375.5449002965,422306.5805770764,258.7456925632021,400.77966514334105,868.0,78.0,84.3853696,76.68539,,85.0
347,13.88,1310678.770136445,426503.4501356178,210.1574429123006,403.2303196359624,870.3090410921127,78.0,84.36533504,76.68539,,85.0
348,13.92,1312085.2326940335,430002.03479454044,236.7596955847341,400.0,876.2015220763295,78.0,84.34552576,76.68539,,85.0
349,13.96,1312252.283533741,429964.88021322864,240.0,399.24971820385696,858.4994364077139,78.0,84.325952,76.68539,,85.0
350,14.0,1312662.397260234,430020.91476408613,239.25722983384242,395.2572298338424,860.1704718277334,78.0,84.306624,76.68539,,85.0
351,14.040000000000001,1312868.7681033993,430111.71817193594,237.46668697384052,397.13340440844183,888.6665651307974,78.0,84.28755199999999,76.68539,,85.0
352,14.08,1313243.7171691034,430634.2883104349,241.82246575725677,417.0966210096757,859.6292237379054,78.0,84.26874368,76.68539,,85.0
353,14.120000000000001,1312762.486118878,430721.6336987829,232.7158599682776,401.8524200951672,874.5682800634448,78.0,84.25020672000002,76.68539,,85.0
354,14.16,1312393.64672749,430424.7637441198,240.23525113384474,396.2352511338447,869.4117503779482,78.0,84.2319488,76.68539,,85.0
355,14.200000000000001,1312685.6999997413,431123.26164336124,257.91232877098804,415.30410959032935,873.9123287709881,77.0,84.21397759999999,76.45205,,85.0
356,14.24,1313324.116984053,432374.32140130625,243.19500381712322,407.8814318432485,864.6864280261252,77.0,84.1963008,76.45205,,85.0
357,14.280000000000001,1313127.1072147586,432411.6756166832,226.1106849198472,389.35792998218824,870.0368949732824,77.0,84.17892608000001,76.45205,,85.0
358,14.32,1312916.0708672593,432061.4595428402,252.6550989410467,402.6898021179066,874.6481583056748,77.0,84.16186112000001,76.45205,,85.0
359,14.36,1313783.8350646466,433720.4835028787,236.65949733304507,434.68100533390987,849.3189946660901,77.0,84.1451136,76.45205,,85.0
360,14.4,1313938.6273765808,435135.2847148103,240.0,424.74220532972095,860.5609125383907,77.0,84.1286912,76.45205,,85.0
361,14.44,1313726.9382783698,435251.90747891436,238.08146230400925,406.7209748693395,878.883899477358,77.0,84.1126016,76.45205,,85.0
362,14.48,1314887.76060891,435895.4921547844,226.10230008010544,401.2651332799297,852.6325666399648,77.0,84.09685248000004,76.45205,,85.0
363,14.52,1315788.5410191747,437367.1392243912,220.37268440143237,408.0,855.3753307997954,77.0,84.08145152000003,76.45205,,85.0
364,14.56,1315322.254977272,437182.36550997896,244.61211567600023,410.448462704001,853.8363470280007,77.0,84.06640640000003,76.45205,,85.0
365,14.6,1315226.5744093778,437241.0950488932,249.2051789767853,425.80776846517796,865.2051789767853,75.0,84.05172480000003,76.22632,,85.0
366,14.64,1316231.757503683,439006.30557033594,253.6192389703051,431.83366819803393,870.8096194851526,75.0,84.03741440000003,76.22632,,85.0
367,14.68,1316543.9758904134,440120.9550685251,236.4887671312785,403.90356165315825,862.2443835656393,75.0,84.02348288000003,76.22632,,85.0
368,14.72,1316673.3206693965,440224.94009089255,219.45132419290064,386.3274276869845,854.8761034940838,75.0,84.00993792000004,76.22632,,85.0
369,14.76,1317593.6015826813,441461.43902556854,245.65235919513296,426.2609436780532,868.6085844829203,75.0,83.99678720000004,76.22632,,85.0
370,14.8,1318546.999237764,442399.00441699964,274.9989337516212,438.88865194480474,849.1113480551953,75.0,83.98403840000003,76.22632,,85.0
371,14.84,1320359.8725108756,443548.42986248963,240.7101369943793,426.5168949906322,852.1618264934425,75.0,83.97169920000003,76.22632,,85.0
372,14.88,1321680.6121462777,444949.7354336452,222.69162860816652,394.15330288653325,833.383257216333,75.0,83.95977728000004,76.22632,,85.0
373,14.92,1321098.9116595024,445250.0702284922,241.05668188465967,409.05668188465967,866.4149771730105,75.0,83.94828032000004,76.22632,,85.0
374,14.96,1319647.0964391623,444372.4252065571,250.59178081513176,415.48164383697366,855.4816438369736,75.0,83.93721600000005,76.22632,,85.0
375,15.0,1317566.0266565466,441506.37547628116,267.4912414331974,412.0,855.5613099676184,74.0,83.92659200000003,76.01292,,85.0
376,15.040000000000001,1317637.457838224,441059.5900145388,260.48998478885113,413.00286148889967,877.9942770222007,74.0,83.91641600000003,76.01292,,85.0
377,15.08,1318742.6252055194,442740.4261797924,236.49144596514637,418.0342161394145,863.5085540348537,74.0,83.90668544000002,76.01292,,85.0
378,15.120000000000001,1318613.4994669452,442201.98750967975,243.37279511605703,404.9636557474449,863.8546229897795,74.0,83.89739776000002,76.01292,,85.0
379,15.16,1318594.504931001,442006.53424595646,264.678356174011,410.1019178137206,887.2547945343015,74.0,83.88855040000001,76.01292,,85.0
380,15.200000000000001,1320018.3989341727,443750.7098929869,240.46453576726637,396.92907153453274,852.0,74.0,83.88014080000002,76.01292,,85.0
381,15.24,1321000.8508453532,444986.8231529756,244.90979436128447,404.90979436128447,852.9097943612844,74.0,83.87216640000001,76.01292,,85.0
382,15.280000000000001,1321118.7925113605,445226.9459970768,251.55238965131014,412.8952206973797,860.4476103486899,74.0,83.86462464000002,76.01292,,85.0
383,15.32,1321240.3068493777,444750.59287724085,248.4376255693864,418.68712329184086,861.3742465836817,74.0,83.85751296000001,76.01292,,85.0
384,15.36,1321080.9621917778,443287.6999699115,251.5723592099171,405.4341552595025,841.7105631603316,74.0,83.85082880000002,76.01292,,85.0
385,15.4,1321187.3284078964,442358.6530084592,248.83594820740925,389.8516374518648,858.9258187259323,73.0,83.8445696,75.81224,,85.0
386,15.44,1322057.804805989,442025.3400764708,254.7687908787238,437.12717871702216,880.7167756765967,73.0,83.8387328,75.81224,,85.0
387,15.48,1322400.6963286654,440931.3185986421,247.1839146879186,410.8060319920305,854.7859253519288,73.0,83.83331584,75.81224,,85.0
388,15.52,1323502.9641697514,441097.7687968448,272.87403349680443,401.17223743869835,880.0,73.0,83.82831615999999,75.81224,,85.0
389,15.56,1325510.2052048855,443091.78237387765,244.0,411.23847793280805,877.7154337984242,73.0,83.8237312,75.81224,,85.0
390,15.6,1327055.7273418782,444546.72368605935,244.0,404.74211728581923,856.0,73.0,83.8195584,75.81224,,85.0
391,15.64,1327251.3490411998,444872.0509591886,244.7276712300389,412.0,856.7276712300389,73.0,83.81579520000001,75.81224,,85.0
392,15.68,1327033.4775644932,444084.3492239801,251.64614916428403,412.353850835716,861.5230441499881,73.0,83.81243904000002,75.81224,,85.0
393,15.72,1327665.1597555494,443623.86902379355,249.72195121237053,418.75512193979284,839.443902424741,73.0,83.80948736,75.81224,,85.0
394,15.76,1329102.1409580314,445219.19698830636,265.6220228236891,443.92346769775276,873.9617338488764,73.0,83.8069376,75.81224,,85.0
395,15.8,1329474.0898705076,446002.09687716916,239.67281035939337,400.0,851.6728103593933,71.0,83.80478719999999,75.62393,,85.0
396,15.84,1329594.0799996674,446635.51999958005,238.23999998994069,402.8799999870666,849.2799999942519,71.0,83.8030336,75.62393,,85.0
397,15.88,1330458.0813991835,447753.43978687504,264.0,434.1413232025538,862.4511026687949,71.0,83.80167424,75.62393,,85.0
398,15.92,1330596.0557502194,448296.0029548848,263.10836253289676,412.0,844.8916374671032,71.0,83.80070656000001,75.62393,,85.0
399,15.96,1330497.8353085746,448843.9348358189,250.83893374532394,413.45133281834507,855.4194668726619,71.0,83.80012800000002,75.62393,,85.0
400,16.0,1330138.5749052016,449935.6220533313,237.1315589295594,431.15133080283044,848.0,71.0,83.79993600000002,75.62393,,85.0
401,16.04,1329535.821856603,449850.0676398805,252.8102283061367,419.72992389795445,848.5401522040911,71.0,83.800128,75.62393,,85.0
402,16.080000000000002,1330414.4483165375,452438.13145326416,261.6573952911287,415.7397105879032,856.7808682362904,71.0,83.80069632000001,75.62393,,85.0
403,16.12,1331137.3687673002,456199.67671160854,230.27835615122154,412.75945205040716,866.2279452157165,71.0,83.80163328000002,75.62393,,85.0
404,16.16,1330696.5230440646,458161.1725107151,262.7841704791721,425.45899542499353,842.1884931374902,71.0,83.80293120000002,75.62393,,85.0
405,16.2,1330821.852816259,459928.8926942348,242.36773212596523,445.2018265016547,875.0672755005515,70.0,83.80458240000002,75.447,,85.0
406,16.240000000000002,1329756.2360393715,459469.0542575706,217.11683167579605,399.7766336648408,858.4364356538855,70.0,83.80657920000002,75.447,,85.0
407,16.28,1330393.0885841942,459050.4778085437,237.51378994399917,397.73004565028475,833.9463013565704,70.0,83.80891392000001,75.447,,85.0
408,16.32,1331246.7980507829,458186.46076126856,262.76237443810726,426.5561035111252,866.5561035111251,70.0,83.81157888000001,75.447,,85.0
409,16.36,1333807.9494666557,457559.48943704966,240.58885844303592,400.5888584430359,841.1777168860718,70.0,83.8145664,75.447,,85.0
410,16.4,1335427.4849312555,456983.38630155846,253.30410957862617,413.49041094700135,864.9315068418758,70.0,83.81786880000001,75.447,,85.0
411,16.44,1336168.3862901214,456532.24639729003,277.8825895076296,442.0590403819938,882.0590403819938,70.0,83.8214784,75.447,,85.0
412,16.48,1338312.8940634336,457268.55911686784,232.67750379919462,401.35500759838925,841.3550075983892,70.0,83.82538751999999,75.447,,85.0
413,16.52,1339555.5618875683,458095.9243228864,248.6375646819807,431.84060882950484,871.6812176590097,70.0,83.82958848000001,75.447,,85.0
414,16.56,1339048.1884930583,457543.00840203755,263.4023744352332,427.2529680440415,862.505936088083,70.0,83.83407360000001,75.447,,85.0
415,16.6,1339316.300151869,457005.6598173121,248.5576864475529,408.6971080594411,824.6971080594411,69.0,83.8388352,75.2815,,85.0
416,16.64,1340222.7976824627,457113.93542674836,263.6110975655114,427.09256098619323,843.7407317103409,69.0,83.8438656,75.2815,,85.0
417,16.68,1341448.0657834192,457349.8742766687,251.87445966665786,400.6277016667108,836.3766210000265,69.0,83.84915712000002,75.2815,,85.0
418,16.72,1342604.73031162,458277.9496573096,248.5773383954632,420.4618707163706,848.2309353581853,69.0,83.85470208000001,75.2815,,85.0
419,16.76,1343039.2332367697,459527.54105093115,267.692185838533,435.692185838533,856.0,69.0,83.86049279999999,75.2815,,85.0
420,16.8,1343279.9638022182,459780.25034213753,255.71346008061457,423.42692016122913,855.8089733870763,69.0,83.86652159999998,75.2815,,85.0
421,16.84,1343450.220685301,459968.56176667643,244.24785985832258,400.3304798110968,848.3304798110968,69.0,83.8727808,75.2815,,85.0
422,16.88,1343857.0136982857,460667.4879450336,255.54630137905139,416.37808218412385,863.697534252701,69.0,83.87926271999999,75.2815,,85.0
423,16.92,1344771.9705399987,461147.8851780466,231.67159178224304,435.671591782243,847.8686367128972,69.0,83.88595967999998,75.2815,,85.0
424,16.96,1346667.4414301706,463579.9144931715,214.11126990662783,416.1172927725904,839.6481216822287,69.0,83.892864,75.2815,,85.0
425,17.0,1345314.3698643185,466460.79223755124,354.90410962605586,424.04566209891436,816.4566209891434,68.0,83.899968,75.12632,,85.0
426,17.04,1341981.8357648666,466193.4524900269,259.1787966844787,428.2856359358335,855.8928865240624,68.0,83.907264,75.12632,,85.0
427,17.080000000000002,1343441.2972279831,467403.8581403861,169.0345204921618,459.6838965162839,843.4827397539191,68.0,83.91474432000001,75.12632,,85.0
428,17.12,1348177.486032279,474318.4382614945,312.3753236551278,416.2064280103203,772.431622203397,68.0,83.92240128000002,75.12632,,85.0
429,17.16,1347421.3196665524,479509.6704100797,391.1732116767079,460.08267883232924,863.7873972882963,68.0,83.93022720000002,75.12632,,85.0
430,17.2,1343812.4977968144,481764.4752830564,112.1076805163699,487.9671483170397,791.8740685486522,68.0,83.93821439999999,75.12632,,85.0
431,17.240000000000002,1338346.3468614584,487171.8182488309,347.33955884315213,416.2014905224282,516.7723803359746,68.0,83.9463552,75.12632,,85.0
432,17.28,1326577.5870365945,485445.2747038826,670.2838354894559,272.762739782464,225.5466667811076,68.0,83.95464192000001,75.12632,,85.0
433,17.32,1324569.2971958923,465247.5943982368,906.5178047852,331.6231707081017,-70.14097549330171,68.0,83.96306688,75.12632,,85.0
434,17.36,1322436.3842746066,449461.5161126837,1110.0577337600432,161.63759702584588,-377.0675588141829,68.0,83.9716224,75.12632,,85.0
435,17.400000000000002,1313179.4156810106,446521.94474997255,1179.1823439609877,148.14429224217864,-435.32663620316634,67.0,83.98030080000001,74.97733,,85.0
436,17.44,1289915.2505805036,432081.1520545259,963.0293984115351,116.44063976895055,-455.7246001444059,67.0,83.98909440000003,74.97733,,85.0
437,17.48,1267311.9270158336,411538.39476828923,924.5582330683579,182.9455597597683,-562.3253007949261,67.0,83.99799552000002,74.97733,,85.0
438,17.52,1245756.4768122332,403175.34520873387,825.7990867977273,195.78410958427273,-544.3598173595454,67.0,84.00699648000001,74.97733,,85.0
439,17.56,1229155.1018635177,398347.8871860734,890.6068797293864,184.2458447536377,-614.5249314781738,67.0,84.0160896,74.97733,,85.0
440,17.6,1213490.5153791686,396211.9430754141,798.2063927323851,160.55159818309627,-627.7242009084518,67.0,84.02526720000003,74.97733,,85.0
441,17.64,1193539.5046772442,391210.3838499424,718.0976426175339,152.20976426175338,-635.7902357382466,67.0,84.03452160000002,74.97733,,85.0
442,17.68,1179508.9336841735,388037.54647497914,754.8801218422877,167.55204873691508,-702.0962071318892,67.0,84.04384512,74.97733,,85.0
443,17.72,1162239.3023070737,382650.40402352205,693.902939858186,195.16746381204362,-684.5946687056831,67.0,84.05323008,74.97733,,85.0
444,17.76,1147897.9197015713,376560.9074397293,614.6354372945575,188.26354372945576,-649.1859467825509,67.0,84.06266880000003,74.97733,,85.0
445,17.8,1136883.0434495353,371781.0971055747,720.1926828815443,222.77621949763923,-678.9121951090126,66.0,84.07215360000004,74.832695,,85.0
446,17.84,1128616.8030451406,368842.23863234516,650.8250038330093,208.5947376490546,-653.0407908858455,66.0,84.08167680000003,74.832695,,85.0
447,17.88,1118956.714402733,365162.66758141725,690.2533941982906,215.68243530878013,-625.1114764192696,66.0,84.09123072000003,74.832695,,85.0
448,17.92,1111269.7768804778,362902.3829102643,715.0049047884103,235.17075399034184,-681.5122619710255,66.0,84.10080768000003,74.832695,,85.0
449,17.96,1107200.457170549,361845.36621045705,735.1214611790678,213.05424658511873,-645.7570776418645,66.0,84.11040000000003,74.832695,,85.0
450,18.0,1104190.8568176655,361004.1568929535,755.0860624442279,204.36557502230886,-666.9032749330734,66.0,84.12000000000002,74.832695,,85.0
451,18.04,1104796.8719388447,361719.28535328835,794.0447148125435,184.97764259372826,-709.8491862937979,66.0,84.12960000000001,74.832695,,85.0
452,18.080000000000002,1103648.3208224308,363757.61607219494,799.7943378979031,187.79433789790312,-651.2905936335501,66.0,84.13918720000002,74.832695,,85.0
453,18.12,1099831.7965895964,364924.5322767679,962.8511195027547,199.3617060118201,-625.2765879763598,66.0,84.14874880000002,74.832695,,85.0
454,18.16,1090330.4540070961,366064.3399690874,752.9100761990569,192.4451750413468,-506.9002131408752,66.0,84.15827200000001,74.832695,,85.0
455,18.2,1081232.8228347974,366250.44140025077,1094.138203802174,214.60456620013878,-661.9993911009946,65.0,84.16774400000003,74.693,,85.0
456,18.240000000000002,1061447.1656705816,358000.0798209884,1089.6978995549625,92.0043836162515,-536.7320548540926,65.0,84.17715200000004,74.693,,85.0
457,18.28,1041670.9457616264,355749.72730669606,705.7592695755502,136.46441397982645,-243.19318125237072,65.0,84.18648320000003,74.693,,85.93686453535405
458,18.32,1047904.5099128949,373267.7380576572,747.3257577766104,214.8063975295672,-63.16624531143054,65.0,84.19572480000002,74.693,,86.0
459,18.36,1077114.2108465056,403804.73604774853,953.2955740546092,246.09387071078268,205.2110112920007,65.0,84.20486400000001,74.693,,86.0
460,18.400000000000002,1121545.553370175,438488.701280132,934.516984021128,240.5593297824729,402.5760852206507,65.0,84.21388800000004,74.693,,86.0
461,18.44,1149015.4911914852,467622.2979179527,631.4443836971504,284.5267579707925,416.0,65.0,84.22278400000003,74.693,,86.0
462,18.48,1167083.3778313333,483761.57213974994,663.5086757739385,213.98843230141534,490.01156769858466,65.0,84.23153920000003,74.693,,86.0
463,18.52,1188412.5476621182,484589.91278552887,745.5024657181409,237.52474884500606,669.4578994644105,65.0,84.24014080000002,74.693,,86.0
464,18.56,1200656.1876359582,483732.18240525114,682.0684322998767,236.31939117367773,614.0684322998767,65.0,84.24857600000004,74.693,,86.0
465,18.6,1198722.4263531764,491609.28011820395,613.5518659845346,239.67341964796856,652.0810357756226,64.0,84.25683200000005,74.56005,,86.0
466,18.64,1200293.9573223516,496412.54411978216,501.83397723531544,294.9134600506989,787.7923041216774,64.0,84.26489600000002,74.56005,,86.0
467,18.68,1205361.3428157002,498734.71399757493,451.81221631720877,281.73282559873127,723.2778675146712,64.0,84.27275520000003,74.56005,,86.0
468,18.72,1211762.4840185582,501763.26138481294,320.3728865789078,349.2832901428786,861.859558195534,64.0,84.28039680000003,74.56005,,86.0
469,18.76,1215164.349413126,500380.07552929345,402.4841976744141,323.2939315742413,865.0979771914137,64.0,84.28780800000001,74.56005,,86.0
470,18.8,1219987.7397238913,496024.8575362178,383.0100456757451,341.7424657431912,820.5150685136176,64.0,84.294976,74.56005,,86.0
471,18.84,1228002.1394937667,485391.4367146485,289.5872049170964,278.9027875403094,866.631165246426,64.0,84.301888,74.56005,,86.0
472,18.88,1232085.1068781973,479689.6650250252,312.4613698475981,322.4954642073749,900.8545509756428,64.0,84.3085312,74.56005,,86.0
473,18.92,1232446.5968340926,476288.7501383689,341.1778386485631,403.5335159456893,882.4189954440888,64.0,84.3148928,74.56005,,86.0
474,18.96,1235793.530409354,471157.62192011316,329.6526027466064,358.1972602997741,811.8498630463805,64.0,84.32096,74.56005,,86.0
475,19.0,1242406.3211537723,471992.71765534295,292.2313546595508,416.38356161280853,839.7686453404492,63.0,84.32672,74.43266,,86.0
476,19.04,1246020.9870511577,473337.64399028884,288.0,438.27838537008455,872.5567707401691,63.0,84.33215999999999,74.43266,,86.0
477,19.080000000000002,1249110.9330884684,469944.98045833985,202.56146122875822,386.6009132679739,872.4400608845316,63.0,84.33727232,74.43266,,86.0
478,19.12,1253209.4016419987,470385.72620961675,227.4995433616493,365.8001826553403,886.1998173446598,63.0,84.34204927999998,74.43266,,86.0
479,19.16,1252276.20712398,473797.1366193841,263.8597260117531,434.79939113722907,898.6199086705843,63.0,84.3464832,74.43266,,86.0
480,19.2,1250654.318812591,470547.6039622112,264.4673267344165,426.3366336720823,878.8039604064988,63.0,84.35056639999998,74.43266,,86.0
481,19.240000000000002,1252292.45990777,468262.48596740555,285.13826482970967,374.6773820640108,883.0460882765699,63.0,84.35429119999998,74.43266,,86.0
482,19.28,1253362.0558900016,470625.69004436425,231.79105025629656,375.0261187179629,891.026118717963,63.0,84.35764991999999,74.43266,,86.0
483,19.32,1248690.8001241598,474018.9110487113,234.50922373903396,404.0245966374239,863.9754033625761,63.0,84.36063487999999,74.43266,,86.0
484,19.36,1243652.7995147586,476756.1951245063,249.9830007545837,411.49575018864596,860.0,63.0,84.36323839999999,74.43266,,86.0
485,19.400000000000002,1242772.1257231105,477452.43105004483,252.0,398.0554033555941,887.8891932888118,62.0,84.36545279999999,74.30589,,86.0
486,19.44,1245439.4558890387,478975.5484924051,234.61917809101,423.809315054384,892.0,62.0,84.36727039999998,74.30589,,86.0
487,19.48,1250979.1184436895,479078.19293227687,228.53118050443427,417.5935415133028,860.7806245399084,62.0,84.36868351999998,74.30589,,86.0
488,19.52,1257572.197409508,478176.1644448969,228.0,350.27445969879176,856.0,62.0,84.36968447999998,74.30589,,86.0
489,19.56,1261648.1399679286,481714.04264651064,234.89850836783603,374.4925418391801,859.449254183918,62.0,84.37026559999997,74.30589,,86.0
490,19.6,1263748.101369039,485869.24200728757,270.3926940461453,400.6356164276872,846.2429223815419,62.0,84.37041919999999,74.30589,,86.0
491,19.64,1265131.0907147895,487790.135646184,258.8535768734447,421.1464231265553,854.2878538759331,62.0,84.37013759999998,74.30589,,86.0
492,19.68,1266923.7284683161,489403.1485141256,262.84380806954147,400.04667175660495,856.0,62.0,84.36941311999999,74.30589,,86.0
493,19.72,1268800.5150067685,491379.1562852363,250.35056317306183,396.0,862.8247184134691,62.0,84.36823807999997,74.30589,,86.0
494,19.76,1269589.9079449351,492460.6955247023,248.0,396.0,864.0,62.0,84.36660479999999,74.30589,,86.0
495,19.8,1270134.5802128492,492715.0374428604,326.0249619069346,396.0,884.3543378887656,61.0,84.36450559999999,74.18574,,86.0
496,19.84,1272280.958172417,493131.74136965245,275.7343074923418,396.0,857.5583561805829,61.0,84.36193279999999,74.18574,,86.0
497,19.88,1275474.4279649828,493776.9043104324,277.49995429590285,389.2500228520486,855.3749885739758,61.0,84.35887871999999,74.18574,,86.0
498,19.92,1279257.9909571526,496442.4471219133,236.24876714678115,428.38575340297126,839.172602748762,61.0,84.35533568,74.18574,,86.0
499,19.96,1283499.4508656228,499104.3937887782,335.37582947021207,368.8901065811175,789.0230746067822,61.0,84.351296,74.18574,,86.0
500,20.0,1287813.3325703365,501266.8470310177,322.5449010835935,396.1461186996878,907.1293758823447,61.0,84.346752,74.18574,,86.0
501,20.04,1294293.9600881776,504748.3968932654,299.3223744383141,407.33552511233717,831.9342466298848,61.0,84.341696,74.18574,,86.0
502,20.080000000000002,1302309.578017548,508822.58532535593,292.6744596669663,391.3722983348315,818.6510806660674,61.0,84.33613312000001,74.18574,,86.0
503,20.12,1311545.1133239379,515611.5076584906,315.2265651052632,414.5446458345865,823.3180807293234,61.0,84.33006848,74.18574,,86.0
504,20.16,1320306.0896764135,523323.89777420624,310.07415525662844,413.3827701710856,817.3827701710857,61.0,84.3235072,74.18574,,86.0
505,20.2,1327858.4216264894,530595.4242160553,377.3239908221108,392.19314547939695,858.9148514613066,60.0,84.3164544,74.63135,,86.0
506,20.240000000000002,1334637.2303239303,537070.5832670492,306.4811559412416,420.8918630995225,891.0243041696657,60.0,84.30891520000002,74.63135,,86.0
507,20.28,1339393.002372427,541935.8533921192,294.5573211530935,450.9506240358273,787.8042009739571,60.0,84.30089472,74.63135,,86.0
508,20.32,1341219.073241422,544843.4151586412,266.5819178248105,420.04456623032394,822.836164350379,60.0,84.29239808,74.63135,,86.0
509,20.36,1340607.3562228703,545976.9098549152,351.31284077078533,418.5223457693418,826.2164813459873,60.0,84.2834304,74.63135,,86.0
510,20.400000000000002,1337003.2879775893,544253.3659066986,358.9929984853329,403.74124810666615,817.4964992426665,60.0,84.2739968,74.63135,,86.0
511,20.44,1332150.394614199,541265.8678249021,433.802374384719,403.2417655993633,744.6811568140076,60.0,84.2641024,74.63135,,86.0
512,20.48,1327378.5514111836,536389.0975805254,477.8739375327256,384.5945468504558,753.8739375327257,60.0,84.25375232,74.63135,,86.0
513,20.52,1325041.3647496854,533416.1033801269,442.0770776497719,402.57388126550745,830.9464839773091,60.0,84.24295168,74.63135,,86.0
514,20.56,1323939.9015529507,530660.8452372461,438.4297108029666,427.28913240889983,751.554337955501,60.0,84.2317056,74.63135,,86.0
515,20.6,1321962.9147002073,525212.6517926462,488.1096724776575,393.512262017874,785.7316069731891,59.0,84.2200192,75.06028,,86.0
516,20.64,1320323.2859626778,524377.0744028233,321.0521065686592,438.32346764879986,812.7819923879529,59.0,84.20789760000001,75.06028,,86.0
517,20.68,1318947.89211631,524080.05339444644,333.3282191443117,455.18490106357285,659.9398478849293,59.0,84.19534592000001,75.06028,,86.0
518,20.72,1318401.5446576949,518329.44274307153,548.0197259089719,494.09899541123275,454.90435321799157,59.0,84.18236927999999,75.06028,,86.0
519,20.76,1323097.8496544368,509854.8395776651,691.852916929346,532.506077667728,278.9716375506024,59.0,84.16897279999999,75.06028,,86.0
520,20.8,1344675.8292115994,500577.5105067261,927.5853880014231,479.99817355183524,149.26027402921355,59.0,84.1551616,75.06028,,86.0
521,20.84,1375890.5488733964,494269.639637301,1075.2921765052927,454.5559817408318,-45.992328665027884,59.0,84.14094080000001,75.06028,,86.0
522,20.88,1393627.1234969348,490464.19494446943,968.1027266599708,382.91095205998477,-13.489718249982673,59.0,84.12631552000002,75.06028,,86.0
523,20.92,1404334.0859268534,486779.33928696753,1010.2174904468848,376.5147984715016,-70.21749044688482,59.0,84.11129088000001,75.06028,,86.0
524,20.96,567775.9372542632,486651.6640787222,991.4653272697733,342.5833790182523,-229.1942769330749,59.0,84.095872,75.06028,,86.0
525,21.0,188424.55877613902,488709.6791147131,964.4359756192965,319.5487804954372,-305.35365851368846,58.0,84.08006400000001,75.484184,,86.0
526,21.04,48080.269810441736,492724.1079522302,956.8981901159758,281.88009127573366,-325.30542965207263,58.0,84.063872,75.484184,,86.0
527,21.080000000000002,616.1956279172337,502304.735519811,999.2759817083858,275.091141550599,-476.37479442875133,58.0,84.04730112000001,75.484184,,86.77278538764975
528,21.12,-8656.553239635137,513887.45235357294,802.4813395519053,226.70149165927185,-479.9449619731584,58.0,84.03035648000001,75.484184,,87.0
529,21.16,-7824.843167137111,525694.4893702604,942.6973514714741,196.64414004003984,-471.07117199199206,58.0,84.01304320000001,75.484184,,87.0
530,21.2,-6642.782648770141,535793.3187168462,884.6136987051464,176.69406393655723,-475.06118721268854,58.0,83.99536640000001,75.484184,,87.0
531,21.240000000000002,-6698.121523080758,546114.1797968849,774.715369429374,175.05352627377607,-476.0,58.0,83.97733120000001,75.484184,,87.0
532,21.28,-6477.228736868188,554751.4707114814,837.2393302351372,151.64590564710363,-457.73442923532775,58.0,83.95894272000001,75.484184,,87.0
533,21.32,-6946.341247739585,560513.326146718,854.8971689555743,153.1028310444257,-503.58270925174565,58.0,83.94020608000001,75.484184,,87.0
534,21.36,-7062.293657834856,564751.4594049107,779.4721825559783,152.9780076064991,-432.36222058847375,58.0,83.9211264,75.484184,,87.0
535,21.400000000000002,-7338.835338727128,567530.8603187158,870.515156057166,145.97288652330704,-428.1084539067718,57.0,83.90170879999998,75.900795,,87.0
536,21.44,-7492.33105019184,570697.9577761093,859.9308371696299,125.97406393861118,-523.125357630046,57.0,83.88195839999999,75.900795,,87.0
537,21.48,-7305.887854014766,573747.5982634113,814.0566210240534,128.98301369278397,-447.19817358418686,57.0,83.86188031999998,75.900795,,87.0
538,21.52,-5896.279361607685,575645.9133630153,809.9687062365824,140.95305935487355,-435.87482494632945,57.0,83.84147967999998,75.900795,,87.0
539,21.56,-5741.154794322505,576618.7710498484,874.4617351187419,132.10252664404916,-554.0516285425451,57.0,83.82076159999998,75.900795,,87.0
540,21.6,-7651.050683737618,577480.5397255894,795.2109589707361,125.03561644031576,-506.0328767691573,57.0,83.79973119999998,75.900795,,87.0
541,21.64,-11200.945995016185,576814.6013704593,792.4983865841883,118.09120243923849,-476.0,57.0,83.77839359999997,75.900795,,87.0
542,21.68,-12485.747397092107,576967.370136672,801.0555859989228,118.94441400107728,-531.9438660204682,57.0,83.75675391999997,75.900795,,87.0
543,21.72,-12111.272902063782,578642.5086966273,782.3800152441244,134.68332062989631,-546.1266717480414,57.0,83.73481727999996,75.900795,,87.0
544,21.76,-17591.589219935227,574831.8969892389,904.8094976300337,119.50757992249464,-596.6947944850137,57.0,83.71258879999996,75.900795,,87.0
545,21.8,-35193.790248222365,558319.532430203,861.5573821008841,106.16499239360542,-586.8249619680271,56.0,83.69007359999998,76.30972,,87.0
546,21.84,-49374.994453928564,545309.041709813,761.1270624504423,80.7398478088495,-607.9827092628319,56.0,83.66727679999997,76.30972,,87.0
547,21.88,-55405.83451858329,541698.8317813708,741.7950684891807,77.79506848918066,-553.3567123744223,56.0,83.64420351999998,76.30972,,87.0
548,21.92,-58646.780576906065,541606.9567730649,793.0883409098766,111.76304411815545,-522.2249010694263,56.0,83.62085887999997,76.30972,,87.0
549,21.96,-60126.049010203744,542150.1297409289,780.3467884541828,109.6121765700831,-525.7551293719667,56.0,83.59724799999996,76.30972,,87.0
550,22.0,-62014.520546807544,540883.30593708,811.0136986001986,115.47031962671961,-568.1461186935187,56.0,83.57337599999997,76.30972,,87.0
551,22.04,-67533.05065919494,536261.1336509685,805.1218278911035,120.0,-569.7011424319397,56.0,83.54924799999996,76.30972,,87.0
552,22.080000000000002,-75765.25646437811,531470.3709002528,813.1039269286204,120.0,-592.506544881034,56.0,83.52487423999996,76.30972,,87.0
553,22.12,-85494.99603753579,528215.0243849568,788.752633203201,117.15933029120008,-601.1593302912,56.0,83.50026495999995,76.30972,,87.0
554,22.16,-97683.80136329148,523588.28301641217,773.1693150705036,124.49205478848933,-594.3386301410071,56.0,83.47543039999995,76.30972,,87.0
555,22.2,-113906.50303528582,514021.071999616,859.4417046559819,128.0,-597.641400300386,56.0,83.45038079999996,76.71491,,87.0
556,22.240000000000002,-130461.26737949971,501773.3880947416,870.6842955246466,130.81285605281704,-563.4328713133783,56.0,83.42512639999995,76.71491,,87.0
557,22.28,-144376.54496681172,490464.9740586742,851.5950722494052,165.61971100237886,-567.611498084721,56.0,83.39967743999996,76.71491,,87.0
558,22.32,-159996.98256575284,480397.6546584272,839.6213861446932,146.48554457877304,-576.0,56.0,83.37404415999997,76.71491,,87.0
559,22.36,-178246.40534807974,473337.97522369074,858.270441384076,123.64858448097151,-603.838051730095,56.0,83.34823679999997,76.71491,,87.0
560,22.400000000000002,-191904.4535710779,469450.7656027519,854.1308980314699,108.90471842517591,-618.773820393706,56.0,83.32226559999995,76.71491,,87.0
561,22.44,-204456.52989431622,458901.60119520733,809.2768317116913,98.46811881595592,-570.2130693436033,56.0,83.29614079999996,76.71491,,87.0
562,22.48,-216174.55725667934,446625.9714127489,800.2643954311487,109.77399238524781,-520.4520152295044,56.0,83.26987263999996,76.71491,,87.0
563,22.52,-224375.28188528138,439315.76505987777,891.8705863778317,77.55661845969863,-639.8058795667475,56.0,83.24347135999997,76.71491,,87.0
564,22.56,-227843.56611774364,438285.9674880902,879.9984170860714,57.26307458347745,-672.6307458347744,56.0,83.21694719999998,76.71491,,87.0
565,22.6,-233850.4328726496,438173.7780825055,809.6420091672757,45.09223745112368,-580.9187215206467,55.0,83.19031039999999,77.113266,,87.0
566,22.64,-241500.5749428512,440331.2045339904,788.0,-8.905205442480842,-655.3951901745397,55.0,83.16357119999998,77.113266,,87.0
567,22.68,-247867.41034707718,445645.9260850846,695.9629833271878,-37.41394215722425,-689.0512024497151,55.0,83.13673983999998,77.113266,,87.0
568,22.72,-251387.04794395587,452677.8112290372,681.6668492923951,-91.24273968686433,-663.8180822041481,55.0,83.10982655999997,77.113266,,87.0
569,22.76,-261263.9653852486,452081.1655468781,706.7561919186194,-126.75619191861934,-672.134287877929,55.0,83.08284159999997,77.113266,,87.0
570,22.8,-272185.1074531332,448343.01857100154,663.7589041468216,-142.72024352292854,-682.6800608807322,55.0,83.05579519999996,77.113266,,87.0
571,22.84,-284958.89545679925,442692.2082226981,648.010228304286,-145.32992389857134,-649.2890106814274,55.0,83.02869759999997,77.113266,,87.0
572,22.88,-296387.6208630448,438791.1391635051,662.6484691462986,-183.93175929861948,-717.1877531703882,55.0,83.00155903999996,77.113266,,87.0
573,22.92,-310268.33478626446,432905.1150724595,606.9775342944006,-219.9189040971129,-781.2252054628171,55.0,82.97438975999997,77.113266,,87.0
574,22.96,-329563.9442627724,428378.2431954592,599.7704030230925,-228.0,-813.1292471316377,55.0,82.94719999999998,77.113266,,87.0
575,23.0,-346607.6164305277,429912.3698609975,588.3287671420672,-228.0,-818.7397260315705,54.0,82.91999999999997,77.50234,,87.0
576,23.04,-354832.88425933424,433913.1405153681,536.6977169263308,-254.20152204911278,-805.5193911803549,54.0,82.89279999999998,77.50234,,87.0
577,23.080000000000002,-362820.28309991903,429904.9449662946,547.3220091072936,-241.898325743922,-815.6610045536468,54.0,82.86561535999996,77.50234,,87.0
578,23.12,-375011.9677368005,415568.26647265244,587.4373170542644,-243.62487803617628,-792.7502439276474,54.0,82.83846143999997,77.50234,,87.0
579,23.16,-385431.14623587404,403812.2858492952,540.2854186175803,-303.9257229412346,-760.4222831176296,54.0,82.81135359999998,77.50234,,87.0
580,23.2,-394409.8054704863,400457.7729280148,461.48197722416865,-344.9216729932865,-795.9336881771741,54.0,82.78430719999997,77.50234,,87.0
581,23.240000000000002,-405107.5298339425,399416.79052622465,482.35418122630034,-308.2210510640497,-838.0266260324502,54.0,82.75733759999999,77.50234,,87.0
582,23.28,-417684.7862744182,394836.55601858365,638.78339152735,-271.17809886986765,-786.4548745753648,54.0,82.73046015999998,77.50234,,87.0
583,23.32,-427493.43442501413,388766.58000312746,614.9744901869395,-307.40614912689546,-790.2995433472607,54.0,82.70369023999997,77.50234,,87.0
584,23.36,-423838.966372542,394700.9129864185,516.7306626407772,-344.7262756938891,-761.0948972244437,54.0,82.67704319999997,77.50234,,87.0
585,23.400000000000002,-431119.2191688635,388369.26302286005,758.3196344802914,-339.31811264379564,-655.9086758627739,53.0,82.65053439999997,77.88302,,87.0
586,23.44,-438611.2451131988,382176.16164373193,618.9384477352625,-337.0527853838748,-690.3181734500591,53.0,82.62417919999997,77.88302,,87.0
587,23.48,-442205.95923590346,387549.0729581935,561.3246000563926,-282.0785377489549,-710.8167555430239,53.0,82.59799295999996,77.88302,,87.0
588,23.52,-461674.48701152875,375679.69336635666,908.8466005216533,-263.04535359937427,-573.1296122717766,53.0,82.57199103999997,77.88302,,87.0
589,23.56,-492537.7573931273,348810.303168452,1243.3887584248482,-229.52822547429224,-622.4186442211577,53.0,82.54618879999995,77.88302,,87.0
590,23.6,-515101.04473994847,325164.98905215337,960.6173519278952,-261.25844743934033,-656.1680365639372,53.0,82.52060159999996,77.88302,,87.0
591,23.64,-521107.43491652794,303078.28622240224,829.6600303534685,-281.1229223872973,-446.0365298412162,53.0,82.49524479999997,77.88302,,87.0
592,23.68,-279082.7600277461,267555.72337183525,1099.440365116346,-267.0609436877061,-344.3476407807349,53.0,82.47013375999995,77.88302,,87.0
593,23.72,-56574.364602762245,253161.2761290805,556.0332679146587,-391.99366325435074,-388.9212490156781,53.0,82.44528383999995,77.88302,,87.0
594,23.76,11759.806555180927,255325.64328697283,655.9517803649379,-395.9693151353157,-335.9693151353157,53.0,82.42071039999996,77.88302,,87.0
595,23.8,-3764.180490987281,238339.07672778753,905.8362253354564,-218.5412482118498,-41.29558621503449,53.0,82.39642879999998,78.25751,,87.0
596,23.84,-24970.509526308542,222920.33692921378,1031.1495888853726,-109.24103503140141,25.992572378350175,53.0,82.37245439999997,78.25751,,87.0
597,23.88,-39785.122760228,210181.6928040577,1114.9060777107088,-125.94290933750644,-32.0,53.0,82.34880255999997,78.25751,,87.0
598,23.92,-11920.078206413324,233071.44170876674,808.5307765139473,-157.66283104154797,18.72986296812693,53.0,82.32548863999997,78.25751,,87.0
599,23.96,48652.56212830936,283044.24240756896,747.5033179974266,-224.143074527088,-8.143074527087997,53.0,82.30252799999998,78.25751,,87.0
600,24.0,75479.77168713312,309039.95281069644,980.5357685103627,-208.898021359059,112.51445951926291,53.0,82.27993599999998,78.25751,,87.0
601,24.04,99264.64726088522,329894.9193751009,958.2339071943301,-136.18644329245,86.29605495848006,53.0,82.25772799999999,78.25751,,87.0
602,24.080000000000002,135042.923268485,347260.22775719827,778.4686758886552,-180.98557071290242,10.272876699221188,53.0,82.23590911999999,78.25751,,87.0
603,24.12,168162.49232071495,345628.08436161693,870.8323532424623,-19.384371860646525,176.4617211045151,53.0,82.21448447999998,78.25751,,87.0
604,24.16,195185.49306681356,336040.92837033846,989.4403650102506,-88.4082127306398,111.71333856292551,53.0,82.19345919999998,78.25751,,87.0
605,24.2,250018.31977494305,358994.01491384726,770.1658538696242,46.292682662969696,276.6451216851611,52.0,82.17283839999999,78.626175,,87.0
606,24.240000000000002,307966.09165586904,392160.0054314554,933.0154825886846,248.6863574100538,464.28410647486555,52.0,82.15262719999998,78.626175,,87.0
607,24.28,338218.617858145,409582.02705549984,1003.7604872099885,151.72687985118665,383.7100761717857,52.0,82.13283071999999,78.626175,,87.0
608,24.32,354498.8580746063,419157.68711915734,868.7805175258688,59.10246577328199,427.1998781439376,52.0,82.11345407999998,78.626175,,87.0
609,24.36,374636.806292434,439896.60854372685,666.9020565364167,127.29407455861251,623.2548361312136,52.0,82.0945024,78.626175,,87.0
610,24.400000000000002,404858.435597472,475810.837420749,693.3515980185621,319.38630124368626,630.7141553330458,52.0,82.0759808,78.626175,,87.0
611,24.44,391907.0323669684,485229.17605593585,1151.149422164746,264.7576901157214,22.61106435669228,52.0,82.05789439999998,78.626175,,87.0
612,24.48,354809.55574789835,477622.1139043597,990.8785369879588,97.22146346801665,-235.64146355921176,52.0,82.04024831999999,78.626175,,87.0
613,24.52,348855.64949854737,486326.5470425902,748.3040364907157,108.36642797621533,99.12651920300442,52.0,82.02304767999998,78.626175,,87.0
614,24.560000000000002,321669.146688088,479533.759618208,1108.7003195748835,23.15795899545158,29.665194445862085,52.0,82.00629759999997,78.626175,,87.0
615,24.6,320862.2849081218,481135.9954212976,1022.9114158420258,13.925114070443797,119.34246548561197,51.0,81.99000319999998,78.990974,,87.0
616,24.64,352090.80351559963,500780.81748065207,764.7525475396856,86.74847147618863,292.008152126994,51.0,81.97416959999998,78.990974,,87.0
617,24.68,340981.00741850137,499859.6861273591,1111.86958868509,33.80748864268966,2.133698892103496,51.0,81.95880191999997,78.990974,,87.0
618,24.72,309326.7654377334,482836.1864535529,1200.2298250216522,5.8390860444974635,-38.98845408839844,51.0,81.94390527999998,78.990974,,87.0
619,24.76,277316.9479046999,458055.3074141108,948.0438357175213,20.0,129.76121761782528,51.0,81.92948479999998,78.990974,,87.0
620,24.8,242707.55344345391,432658.9564810613,945.3942160551951,-2.1126331586271654,153.36621005241184,51.0,81.91554559999997,78.990974,,87.0
621,24.84,241413.5778855697,429866.14081479545,930.9552512204266,13.019178048388596,227.24602731613263,51.0,81.90209279999998,78.990974,,87.0
622,24.88,258382.6936317568,437141.33144432836,874.5738812717673,24.66094369920966,283.23482497097694,51.0,81.88913151999996,78.990974,,87.0
623,24.92,254202.26020732784,428632.27090126876,980.4166335592902,-25.11049501104202,293.46376235813744,51.0,81.87666687999997,78.990974,,87.0
624,24.96,264155.1058265989,429577.9315886748,874.8299545349051,-10.338264887735725,349.31299843490575,51.0,81.86470399999999,78.990974,,87.0
625,25.0,298723.0547736306,449636.8356034435,754.9589040687639,43.15068491563042,340.71232881248454,51.0,81.853248,79.35309,,87.0
626,25.04,312773.2672176241,454755.0766571388,902.1831353438317,60.3087975601446,314.7719939003615,51.0,81.84230399999997,79.35309,,87.0
627,25.080000000000002,302148.2772080681,439617.0103612309,991.4223439969247,64.0,347.58855400845704,51.0,81.83187199999998,79.35309,,87.0
628,25.12,308447.93432361796,441956.27176861133,840.993242161822,78.94100455025742,374.40328766439603,51.0,81.82195199999998,79.35309,,87.0
629,25.16,328592.75581726886,464905.5669929368,862.6983090579192,60.10906324827843,269.4447525940319,51.0,81.81254399999997,79.35309,,87.0
630,25.2,324973.16074254643,467076.3902687352,998.3525114086665,-16.70258746644314,197.41004563466598,51.0,81.80364799999998,79.35309,,87.0
631,25.240000000000002,309033.94746476755,456216.8593027152,854.3661493254398,36.94587508492636,293.7631658254875,51.0,81.79526399999999,79.35309,,87.0
632,25.28,290139.0006854053,447226.01884870284,923.770975386951,117.69780488493966,250.76195133895408,51.0,81.787392,79.35309,,87.0
633,25.32,270043.4533825965,437699.8128914222,1062.0099696553225,59.73860188104824,158.2713677742742,51.0,81.78003199999999,79.35309,,87.0
634,25.36,264504.52837584,437481.8027080083,984.654501181564,30.71232290387789,164.0,51.0,81.773184,79.35309,,87.0
635,25.400000000000002,265294.1791326639,441580.7393740151,931.2779893604563,23.133587232547594,209.58842340699607,50.0,81.76684800000001,79.70439,,87.0
636,25.44,273949.48859783943,451706.20853757026,813.0185248255276,41.24228132269682,317.9876501163149,50.0,81.76102399999999,79.70439,,87.0
637,25.48,291878.3993809316,466972.91436056414,875.8497410724152,26.68298331733164,265.16334868348355,50.0,81.75571199999999,79.70439,,87.0
638,25.52,316208.49076665693,485408.5742744146,960.691058716153,-3.5777608761783775,188.6755825981146,50.0,81.75091199999999,79.70439,,87.0
639,25.560000000000002,334881.8830118574,497401.0040206342,950.881949675419,38.38805785718439,289.19945155857,50.0,81.746624,79.70439,,87.0
640,25.6,342991.94356886426,499458.3546751189,985.8232699782222,43.79802283225404,248.66190126368303,50.0,81.74284800000001,79.70439,,87.0
641,25.64,371189.9700791629,522922.01184670127,933.738569298382,28.0,188.3027092334524,50.0,81.73958400000001,79.70439,,87.0
642,25.68,421774.9111336409,565968.3558320288,964.180228405115,23.989398329110884,250.04770751900102,50.0,81.73683199999999,79.70439,,87.0
643,25.72,462777.8940476341,595178.3110408761,1101.8891932212236,-27.92401820883903,166.16146130621706,50.0,81.73459199999999,79.70439,,87.0
644,25.76,495803.98353924946,611911.8835514048,1017.0257536069444,-58.11835618541666,129.56602732013894,50.0,81.73286399999998,79.70439,,87.0
645,25.8,528386.9429066365,627529.9429143255,640.5680367894913,76.63500747225237,389.73272427594463,49.0,81.73164799999998,80.04464,,87.0
646,25.84,520533.80048219406,618902.4282681943,791.6740330377852,95.689132539649,489.65601229377353,49.0,81.73094399999998,80.04464,,87.0
647,25.88,504815.2237546252,604286.2688481703,1121.2484387605134,-53.04286361693973,199.99500403364286,49.0,81.73075199999998,80.04464,,87.0
648,25.92,538068.4039862852,622604.8074683708,909.8535161628026,-72.70063930232776,117.09735146178502,49.0,81.73107199999997,80.04464,,87.0
649,25.96,586421.4687118267,650363.8259237668,852.8784169247161,-59.519756449956326,288.3791780186026,49.0,81.73190399999997,80.04464,,87.0
650,26.0,620111.9832426248,665124.5159768508,979.2998477694107,-56.70015223058935,332.4200913383536,49.0,81.73324799999997,80.04464,,87.0
651,26.04,638474.4399931767,671110.1999979093,950.0800000614228,-18.72000002126171,321.9199999976376,49.0,81.73510399999998,80.04464,,87.0
652,26.080000000000002,655548.9329337394,677849.1416542523,821.4526733596726,-19.114699138545483,379.4326275017819,49.0,81.73747199999998,80.04464,,87.0
653,26.12,667934.5492538202,681983.9838066904,890.342891745825,-89.47993905558796,302.97863030760254,49.0,81.74035199999999,80.04464,,87.0
654,26.16,676730.9966712651,684708.8836174294,783.3950688349057,-62.59713861042326,282.62319618327433,49.0,81.74374399999999,80.04464,,87.0
655,26.2,687076.6598161958,688414.8493161025,630.6484016363297,24.233789959091755,473.1945204908989,49.0,81.74764800000001,80.373764,,87.0
656,26.240000000000002,692231.8775880542,685524.7885478188,929.3437317472692,46.243655716837225,460.2654075448239,49.0,81.752064,80.373764,,87.0
657,26.28,689451.3466761956,672116.8499990564,850.1922681728092,87.19707761126566,548.4914457614744,49.0,81.75699200000001,80.373764,,87.0
658,26.32,682162.9381414795,653887.3558060997,632.8362860966309,88.8628310645552,748.7057534031673,49.0,81.762432,80.373764,,87.0
659,26.36,668328.2275996841,625972.8034983223,772.3105021635329,-32.92639255296875,627.6880367114301,49.0,81.76838400000001,80.373764,,87.0
660,26.400000000000002,633182.1972828859,583230.3613622772,784.5162862737067,-33.300456786264576,557.6474884623262,49.0,81.77484800000002,80.373764,,87.0
661,26.44,602180.6955812905,556973.4562145259,737.7947295403898,136.10394513734133,682.6210510089755,49.0,81.781824,80.373764,,87.0
662,26.48,573173.8065970499,539471.2501208532,721.3964080396853,154.542100463828,607.215707885076,49.0,81.78931200000001,80.373764,,87.0
663,26.52,539217.4775531978,514555.0904268202,595.3347945373897,72.00876722433796,548.4701369165285,49.0,81.797312,80.373764,,87.0
664,26.560000000000002,514683.1176639745,493975.3117218522,614.2133129777931,-45.209809562584326,608.3985986339165,49.0,81.805824,80.373764,,87.0
665,26.6,502881.7111150308,487640.9165889988,618.3598174022758,-47.321765639829124,736.6368339157902,48.0,81.814848,80.691025,,87.0
666,26.64,503157.1345457538,498256.28668465465,577.3472146046216,28.995311968765662,716.412298574658,48.0,81.824384,80.691025,,87.0
667,26.68,479053.2714550025,488362.5587505771,741.7453879124316,-49.386666489972015,459.6412785775404,48.0,81.83443199999999,80.691025,,87.0
668,26.72,459615.8236601732,477001.5272238242,740.8448100151718,-106.25388142398504,424.0,48.0,81.84499199999999,80.691025,,87.0
669,26.76,479631.3716914824,498138.7183540286,570.3651749239483,64.80146113623223,490.5931201512774,48.0,81.85606399999999,80.691025,,87.0
670,26.8,463104.57810268877,488029.8219346728,818.8821915814502,84.12054798410726,513.2712329642413,48.0,81.867648,80.691025,,87.0
671,26.84,440862.00155820686,469081.9805377529,991.8633968182764,46.26619954546807,378.2521859095102,48.0,81.87974399999999,80.691025,,87.0
672,26.88,443753.95107065124,471239.1091537374,867.2909590577426,57.804322659334275,218.2719027143272,48.0,81.89235199999999,80.691025,,87.0
673,26.92,448610.5355619439,475041.94445114536,933.2977774798235,93.15555553113307,112.00888887179315,48.0,81.90547199999997,80.691025,,87.0
674,26.96,455972.56345119287,476527.95113043295,1029.5039272023482,44.36602749998711,-52.79050202384204,48.0,81.91910399999998,80.691025,,87.0
675,27.0,490186.69099628023,497658.99541833234,846.7366817967351,-87.60730588463343,-241.74124817579667,48.0,81.93324799999999,81.00059,,87.0
676,27.04,522217.3534356825,521866.42929286417,921.8786900375785,-85.39345018789228,-146.07049508142,48.0,81.947904,81.00059,,87.0
677,27.080000000000002,539951.4299710977,540374.0094363319,976.8775018032326,47.83768459811795,-20.243473102823074,48.0,81.96306688,81.00059,,87.0
678,27.12,533612.9657059493,538460.489656081,1192.272304005496,167.73852466811698,90.28416733234101,48.0,81.97873151999998,81.00059,,87.0
679,27.16,522435.4900449518,527510.1544222519,1125.9464436074022,170.50114248358196,-119.27506447092597,48.0,81.9948928,81.00059,,87.0
680,27.2,540073.668578659,534613.2766472497,705.2228138238305,97.14555135299044,-292.77627388261567,48.0,82.01154559999998,81.00059,,87.0
681,27.240000000000002,559935.1112237559,549492.9833662448,580.9161643761478,138.27141543120553,-96.4252056054873,48.0,82.02868480000001,81.00059,,87.0
682,27.28,570105.047802667,565797.2760912986,542.3258537279396,185.58829274737252,-29.830243820642558,48.0,82.04630528,81.00059,,87.0
683,27.32,573506.7361197071,574178.8462320853,576.6634827361814,125.62360456026099,-258.9952241042721,48.0,82.06440192,81.00059,,87.0
684,27.36,573583.3389068964,574059.6187574887,773.9661490859144,132.83543378250783,-575.0968643893209,48.0,82.08296960000001,81.00059,,87.0
685,27.400000000000002,562357.361627883,555600.1333028647,793.4964204958533,123.96953543995684,-751.2670220320949,47.0,82.10200320000001,81.30119,,87.0
686,27.44,531761.7437540494,521484.367079746,759.8101900394425,205.18241808677357,-603.1972018343414,47.0,82.12149760000001,81.30119,,87.0
687,27.48,484890.42598729266,489405.7553548494,960.2279967514504,371.91530844144756,-217.68079220894538,47.0,82.14144768000003,81.30119,,87.0
688,27.52,445376.4626495041,465249.9873100965,1085.0747906684148,544.7638078182595,-25.803137957187246,47.0,82.16184832000002,81.30119,,87.0
689,27.560000000000002,431896.5533276028,451216.35479154246,761.0237322544561,788.8616603248826,157.59683155305316,47.0,82.18269440000003,81.30119,,87.0
690,27.6,433046.1379930947,449801.3118548359,633.743464715575,872.8437688544528,330.75987834444885,47.0,82.20398080000002,81.30119,,87.0
691,27.64,430777.75324700045,442121.31154859485,1044.062830907297,967.1961035734805,393.1852663798056,47.0,82.22570240000003,81.30119,,87.0
692,27.68,426725.643834251,428264.94648858113,1012.0825573588796,891.3950685006843,399.02465749657864,47.0,82.24785408000002,81.30119,,87.0
693,27.72,428207.44304390677,424272.4725714961,682.6252664502716,864.1750989672437,436.0,47.0,82.27043072000002,81.30119,,87.0
694,27.76,427086.1001393363,422605.43939479196,639.9686823336114,801.6767708044059,431.45151562066087,47.0,82.29342720000002,81.30119,,87.0
695,27.8,424955.9436832707,414115.23668935586,716.5242009056758,750.4919330314414,431.5403348427929,46.0,82.31683840000001,81.594,,87.0
696,27.84,425308.3493147054,402179.20850083325,665.5747946190507,740.5095890537244,445.4980821892551,46.0,82.34065920000002,81.594,,87.0
697,27.88,425177.2984623725,391180.25539037527,530.7692308325124,698.21538466601,476.2953845672905,46.0,82.36488447999999,81.594,,87.0
698,27.92,424494.3029655327,381899.3866829072,524.2411557973564,646.5199695842801,515.1198175056805,46.0,82.38950911999999,81.594,,87.0
699,27.96,425856.1441989848,373132.45352063386,575.9561644596596,626.3824657838638,530.8306848782382,46.0,82.41452799999999,81.594,,87.0
700,28.0,428871.0624505001,367911.5003818134,492.7037319243635,555.1408987764357,572.3259710789816,46.0,82.439936,81.594,,87.0
701,28.04,432361.69466996304,367891.0036512414,481.4512024327682,499.96322676044986,596.9872754158132,46.0,82.465728,81.594,,87.0
702,28.080000000000002,436621.8359182667,370238.922068923,485.4412176534647,523.676347039606,674.5587823465353,46.0,82.49189376000001,81.594,,87.0
703,28.12,441309.8333854583,371808.66656427557,500.89090629842383,514.5676770779529,656.244447857482,46.0,82.51842304000002,81.594,,87.0
704,28.16,447200.6413345598,373894.5477392233,489.8429810498604,533.3481368438372,663.5802280730621,46.0,82.5453056,81.594,,87.0
705,28.2,452875.8325690428,377746.19299556076,394.12968042669775,572.0,713.8873668444573,46.0,82.57253120000001,81.882805,,87.0
706,28.240000000000002,457065.7673042983,380078.63488697715,362.82812779751725,550.9808219562383,655.770593666232,46.0,82.60008960000002,81.882805,,87.0
707,28.28,456692.2328804646,376223.5858192982,477.04304403483957,534.2607001111569,570.9567123749484,46.0,82.62797056000002,81.882805,,87.0
708,28.32,449368.8205240291,367842.1463075207,632.3458142175341,560.8056012459178,488.08596658126044,46.0,82.65616384000002,81.882805,,87.0
709,28.36,441926.06027545844,360582.9039287983,752.7978081651474,514.1727854215754,382.9742466448105,46.0,82.68465920000001,81.882805,,87.0
710,28.400000000000002,440968.53150578844,359015.4651439712,836.5881277997744,439.1598174288937,297.02526639059437,46.0,82.71344640000002,81.882805,,87.0
711,28.44,441882.702283434,360847.219114925,916.3243835152012,355.9459360807998,226.10800616826458,46.0,82.74251520000003,81.882805,,87.0
712,28.48,440746.948272672,363486.722863084,985.4782634772877,350.684782934661,92.98912424144177,46.0,82.77185536000002,81.882805,,87.0
713,28.52,438861.4157083551,364583.738811828,994.6392694710778,329.31141557686226,-29.350867538510208,46.0,82.80145664000001,81.882805,,87.0
714,28.560000000000002,436944.4355581116,365533.2466667386,906.8088889303455,270.70222223258634,-75.97333332556023,46.0,82.83130880000002,81.882805,,87.0
715,28.6,431742.78950277454,364307.2047206906,857.4277016872503,277.0879756131491,-114.2325722386485,45.0,82.86140160000002,82.160164,,87.0
716,28.64,422637.94914012856,358855.87215228967,847.9134246497393,296.3463014010425,-176.0,45.0,82.8917248,82.160164,,87.0
717,28.68,410804.454954439,349370.8481949338,806.8093760501667,266.588980207886,-173.41101979211405,45.0,82.92226815999999,82.160164,,87.0
718,28.72,399287.42215158336,340696.22744178737,765.6093686963216,295.1035132611206,-220.62466909477467,45.0,82.95302143999999,82.160164,,87.0
719,28.76,388406.04463775194,334320.5036743776,937.9906777508461,356.7244478032867,-363.8111195082167,45.0,82.9839744,82.160164,,87.0
720,28.8,377460.6683481596,331751.17001320166,981.2121766567956,378.9418569358698,-433.26453576603257,45.0,83.0151168,82.160164,,87.0
721,28.84,365724.48976481834,332648.7434171707,867.4353658798627,352.92243905583535,-412.1271951717393,45.0,83.04643840000001,82.160164,,87.0
722,28.88,351971.34705150936,326752.8314592595,800.0094905780749,307.5029658056484,-335.0059316112968,45.0,83.07792896000001,82.160164,,87.0
723,28.92,336230.8507880577,316498.542472375,724.3762556815257,302.27726022674614,-301.03963465859357,45.0,83.10957824,82.160164,,87.0
724,28.96,317604.49328572047,306592.32469425624,809.699117075907,375.32517498813263,-404.47147628705795,45.0,83.14137600000001,82.160164,,87.0
725,29.0,298694.8462815312,297962.56469230226,922.9528158663614,401.2115677899966,-532.0,45.0,83.17331200000001,82.42279,,87.0
726,29.04,283795.8854874935,291530.50740131026,851.3928767834624,325.5079452370944,-523.5463013883051,45.0,83.205376,82.42279,,87.0
727,29.080000000000002,270713.70710288925,284052.75288372865,761.6277625887361,281.2208219415521,-506.3953729018773,45.0,83.23756544,82.42279,,87.0
728,29.12,252526.36379145976,271840.87940175785,757.6925417908794,265.50161337308145,-509.62459665672964,45.0,83.26987776,82.42279,,87.0
729,29.16,231628.61188813444,258835.90178607797,787.9271288028856,305.67920788107983,-470.9988119553176,45.0,83.30231040000001,82.42279,,87.0
730,29.2,221644.43836200563,253047.05982104642,744.6849313876401,373.7570775672907,-388.487671240824,45.0,83.3348608,82.42279,,87.0
731,29.240000000000002,212212.37245783102,247332.53418973397,870.8392085262448,458.05503800134863,-409.0197868438798,45.0,83.3675264,82.42279,,87.0
732,29.28,200736.2560815185,241228.71595539848,850.7378995832242,538.4685539723894,-508.77016736129286,45.0,83.40030464,82.42279,,87.0
733,29.32,185681.385493399,231707.41727220864,801.1550685091106,582.3243836121835,-559.4652055273317,45.0,83.43319296000001,82.42279,,87.0
734,29.36,166459.8209840887,214279.6026592354,715.0189347134697,490.6823745171229,-468.4207002454334,45.0,83.4661888,82.42279,,87.0
735,29.400000000000002,154003.9697149069,201340.91491930615,528.7914764345871,425.14216127007336,-338.85783872992664,44.0,83.4992896,82.674126,,87.0
736,29.44,147435.6918772969,196814.6109619489,514.4412785040915,542.2129679350367,-241.78264845524387,44.0,83.53249279999997,82.674126,,87.0
737,29.48,139542.67333389536,190682.69063903557,583.9499161447719,661.9154912173431,-156.4569688407138,44.0,83.56579583999998,82.674126,,87.0
738,29.52,132984.2018884729,182036.1833818838,664.7181735240162,696.7515372692903,-100.40913237991943,44.0,83.59919615999998,82.674126,,87.0
739,29.560000000000002,132689.64639045345,178840.21442937662,590.962557238531,718.9160426206422,-125.57272455091709,44.0,83.63269119999998,82.674126,,87.0
740,29.6,136244.8109561066,175422.27946018547,387.0027397985328,691.2986301987502,-70.6301369997283,44.0,83.6662784,82.674126,,87.0
741,29.64,138966.88773293985,162995.71483397754,295.2321461509896,646.3437442357682,-56.0,44.0,83.69995519999998,82.674126,,87.0
742,29.68,133712.38643426012,150102.50570033235,319.02417032105376,763.8621611967116,-65.4860273730265,44.0,83.73371903999998,82.674126,,87.0
743,29.72,113985.95429216963,137619.15720748482,449.52115774327166,926.2688804103143,-113.94108143609985,44.0,83.76756736,82.674126,,87.0
744,29.76,86043.04184220952,121525.38440817717,327.1290647035316,923.2742205862763,-203.97980220852696,44.0,83.80149759999998,82.674126,,87.0
745,29.8,61719.19849135117,104586.43595598133,291.8690021901483,978.7808070084745,-239.9323687378178,44.0,83.8355072,82.914246,,87.0
746,29.84,41963.89303882617,94973.29080953894,362.43543387929054,1304.8802435501525,-174.0435919200993,44.0,83.86959359999999,82.914246,,87.0
747,29.88,27570.906858674058,90778.22603026053,282.128219129288,1270.907397295514,-331.8290411609493,44.0,83.90375423999998,82.914246,,87.0
748,29.92,13230.998915017468,87643.92273965274,344.9742465509127,1232.997138505657,-205.15738218886668,44.0,83.93798656,82.914246,,87.0
749,29.96,1124.5138509458602,94002.31054588186,364.1027701891721,1250.8073058953023,-93.30630122308861,44.0,83.97228799999999,82.914246,,87.0
750,30.0,1508.2191766778083,119035.98400190147,362.47488578215035,1245.187214753399,-232.5479452707996,44.0,84.00665599999999,82.914246,,87.0
751,30.04,2147.482468347231,141955.73091509033,340.11750406407873,1047.3782649546454,-150.3281583225346,44.0,84.04108800000002,82.914246,,87.0
752,30.080000000000002,401.4137667411171,163476.40177848187,147.79284054944284,952.5695657868106,-27.08094466704044,44.0,84.07558144000002,82.914246,,87.0
753,30.12,11031.395839816245,197469.31484872565,434.8953425149395,1105.4134549568414,203.38240505643813,44.0,84.11013376000001,82.914246,,87.0
754,30.16,39580.539708402925,237644.55507213777,309.47945226000866,1235.7917809040034,16.686027337064118,44.0,84.14474240000001,82.914246,,87.0
755,30.2,62755.02495174037,232135.4243573423,59.533637807612365,1059.3436836587603,58.882191854797,43.0,84.17940480000001,83.14573,,87.0
756,30.240000000000002,75476.9750342212,230635.03840741838,29.732480861643495,719.2599088568666,-35.04365293511517,43.0,84.21411840000003,83.14573,,87.0
757,30.28,83974.26438946642,240458.73950030757,118.64846926732365,615.3004109722372,-48.313663437814995,43.0,84.24888064000004,83.14573,,87.0
758,30.32,92209.09744400257,231729.7605647692,2.8488042320082965,1074.9531146294273,-36.70909346938588,43.0,84.28368896000003,83.14573,,87.0
759,30.36,35190.17522996528,195797.30895104836,91.95388577192908,1418.9649279933465,-136.74074566273634,43.0,84.31854080000004,83.14573,,87.0
760,30.400000000000002,-111149.73585869823,123249.12728241952,259.63226792293415,1122.8474886754877,321.3990867910864,43.0,84.35343360000003,83.14573,,87.0
761,30.44,-182616.65533857467,77541.21918909403,222.98739723818125,973.7084932970492,175.69534280819073,43.0,84.38836480000002,83.14573,,87.0
762,30.48,-174280.21775770132,70838.97218853884,130.57217693619168,831.3128766376678,-268.9870317809658,43.0,84.42333184000003,83.14573,,87.0
763,30.52,-126932.34736064156,94489.36727224909,-137.990556491302,959.5593601023978,-423.045483797085,43.0,84.45833216000003,83.14573,,87.0
764,30.560000000000002,-123974.08487493054,103711.30146588312,452.4780487527208,1077.6097562363962,-223.7609756236396,43.0,84.49336320000003,83.14573,,87.0
765,30.6,-122275.41278321661,103105.52157331041,344.337994381106,934.3027355151879,-124.70759905861141,43.0,84.52842240000003,83.370605,,87.0
766,30.64,-104840.08449782057,112125.02611612172,-126.27458161142863,1050.8174122697142,185.52036530514286,43.0,84.56350720000002,83.370605,,87.0
767,30.68,-118163.75212393323,120619.80631779473,88.98900225420354,1271.5704494222646,181.7202741617659,43.0,84.59861504000001,83.370605,,87.0
768,30.72,-132158.89444478354,154302.63889270357,53.563105265299484,1159.6152208116318,174.85369873046875,43.0,84.63374336000001,83.370605,,87.0
769,30.76,-103604.54927529464,215762.04876367023,-167.94024409808037,1025.5931707540663,2.338536786596947,43.0,84.66888960000001,83.370605,,87.0
770,30.8,-52556.421609115365,274571.302263267,9.122796517193862,980.1367781852516,-221.6437690192805,43.0,84.70405120000001,83.370605,,87.0
771,30.84,-9746.100294791213,294801.94790044625,-20.046916034779116,854.744981122035,-206.1433663002335,43.0,84.7392256,83.370605,,87.0
772,30.88,40665.81842819544,306065.4185943438,514.7232906293615,804.1030916619283,-210.1076619804859,43.0,84.77441024,83.370605,,87.0
773,30.92,89251.2316584128,338173.55643615033,-13.356410626766799,1298.540654261484,-5.322707395317892,43.0,84.80960255999999,83.370605,,87.0
774,30.96,137668.08935636154,381051.2563696292,-30.73071539256852,987.2472450560812,220.60468786891374,43.0,84.84479999999999,83.370605,,87.0
775,31.0,165764.4027253658,392252.53393548,-52.66819205054975,1024.945842713004,260.6193748389738,42.0,84.88,83.58727,,87.0
776,31.04,197610.90665648592,409262.9582687033,-122.06565397343736,1152.144681047886,-206.22905736273907,42.0,84.91519999999998,83.58727,,87.0
777,31.080000000000002,237350.6985215234,446475.67140231084,448.69442915889226,894.9662101584482,-637.8538813490302,42.0,84.95039999999999,83.58727,,87.1814611865097
778,31.12,260623.63336649272,466218.98079119396,419.24527882656736,852.9697631883948,-388.82294497664515,42.0,84.9856,83.58727,,88.0
779,31.16,276217.14771653304,489934.66551771853,6.394650193423857,1245.7215806035647,303.89398204800204,42.0,85.02080000000001,83.58727,,88.0
780,31.2,273784.58328514674,504348.5966600048,195.27793045747953,1173.7095890665707,14.635007437687122,42.0,85.05600000000001,83.58727,,88.0
781,31.240000000000002,242384.49473208046,491153.6358026927,-374.64421044961813,1132.951578992819,189.06947379499604,42.0,85.09120000000001,83.58727,,88.0
782,31.28,249407.35294759806,471897.61921104055,-387.7951711571027,1103.3420196455722,72.35753981236174,42.0,85.1264,83.58727,,88.0
783,31.32,246413.85149764278,451457.1045317759,17.491424060103917,1201.2712262621021,96.51704508597308,42.0,85.1616,83.58727,,88.0
784,31.36,183733.94524734945,436519.5466205912,207.9752627399616,1101.498248400256,-93.250875799872,42.0,85.19680000000001,83.58727,,88.0
785,31.400000000000002,116207.24823571272,404708.6800108552,224.07239545434146,971.9276045456585,-135.1251712108293,42.0,85.23200000000001,83.79747,,88.0
786,31.44,86115.0018425971,391756.7865355162,221.99165262380632,1026.698187203055,-10.570236089115186,42.0,85.2672,83.79747,,88.0
787,31.48,62446.03102476468,387813.9002413035,338.2126234742625,1192.1338403755267,-38.59686685451537,42.0,85.30239999999999,83.79747,,88.0
788,31.52,23460.348060881075,369515.69800360623,482.7503195117416,1121.6862099827515,-123.4652054451372,42.0,85.33760000000001,83.79747,,88.0
789,31.560000000000002,-5420.559694581415,355720.61191487254,610.221585449013,1187.4173171133166,-141.31719522805113,42.0,85.37280000000001,83.79747,,88.0
790,31.6,-5078.992400056509,363764.1342912841,533.2714827894711,1119.3362738616565,-25.72410641804394,42.0,85.40800000000003,83.79747,,88.0
791,31.64,-392.56797186792176,370108.73796006094,612.1222528559432,998.643287697067,-70.47695590589689,42.0,85.44320000000002,83.79747,,88.0
792,31.68,-8271.923243027468,368141.269410115,388.6852094210111,947.5022087830764,-41.76865181556114,42.0,85.4784,83.79747,,88.0
793,31.720000000000002,-32710.069839952404,347755.1735477805,413.6869406507803,823.9521461388655,-183.326027440426,42.0,85.5136,83.79747,,88.0
794,31.76,-60044.33729115478,307283.3182783357,372.7225572159301,778.9736378539461,-152.4580820880524,42.0,85.5488,83.79747,,88.0
795,31.8,-54130.04572473497,293725.77866179036,264.9894894237112,660.939527752739,-283.8220867836466,42.0,85.584,84.18512,,88.0
796,31.84,-18038.280076011855,310470.7831289165,588.9836226681778,700.5620700961016,-301.6754948316281,42.0,85.6192,84.18512,,88.0
797,31.88,637.987525236924,317745.01323484,411.34466924776143,598.5904182798508,-112.54095817201491,42.0,85.65440000000001,84.18512,,88.0
798,31.92,4007.3654562116394,312701.4426285681,394.59826330710075,572.4598933275837,-92.73529334914475,42.0,85.68960000000001,84.18512,,88.0
799,31.96,-1966.3894768201567,300368.42706375994,580.166337010884,663.4822237173837,195.1455285706233,42.0,85.72480000000002,84.18512,,88.0
800,32.0,-24695.670681416035,283821.7292951236,273.4813680003351,849.6212930599546,942.2935369890453,42.0,85.76,84.18512,,88.0
801,32.04,-75645.87438488845,261725.51829977136,1191.251668334552,541.6214468728833,-55.33867504945349,42.0,85.79520000000001,84.18512,,88.0
802,32.08,-85954.52028144426,254990.1166196796,778.2616738870264,759.6818265800607,213.96834119106538,42.0,85.83040000000001,84.18512,,88.0
803,32.12,-78893.24199594722,254983.6279640099,1209.7531865418184,633.3489886572153,-63.66625107286548,42.0,85.8656,84.18512,,88.0
804,32.160000000000004,-94629.00194094694,242428.1082983693,917.8341464291259,543.2507317862132,93.91609749961191,42.0,85.9008,84.18512,,88.0
805,32.2,-108189.07853157754,234287.79270203094,809.6621004712273,440.5187215079274,138.54246593746421,42.0,85.936,84.561195,,88.0
806,32.24,-116692.00103579293,223668.17515459025,776.4535970575456,384.9144942907326,-85.37174143609892,42.0,85.97120000000001,84.561195,,88.0
807,32.28,-115820.18119653857,214393.64016310222,675.5758109906204,392.88980959048274,-95.55509520475863,42.0,86.00640000000001,84.561195,,88.0
808,32.32,-124741.03239103506,200102.107445409,833.3118783182065,405.68480604556123,-95.06104940914835,42.0,86.0416,84.561195,,88.0
809,32.36,-130262.58702092117,189616.0903924331,846.974440192686,466.87220096343,-117.45047983484058,42.0,86.07679999999999,84.561195,,88.0
810,32.4,-132611.30585788522,183901.9922374075,860.2967251394872,596.5977151237729,-74.68332078978023,42.0,86.112,84.561195,,88.0
811,32.44,-141149.1637430942,175901.64536781728,749.7242955801057,621.2029856353522,114.16542265193661,42.0,86.1472,84.561195,,88.0
812,32.480000000000004,-146327.00534777067,167902.08450305535,670.0790272820684,499.660060734372,161.5494225394762,42.0,86.18239999999999,84.561195,,88.0
813,32.52,-148646.60980844265,161995.20746621117,758.4480121976442,578.4759176659021,103.22400609882206,42.0,86.21759999999999,84.561195,,88.0
814,32.56,-150306.35138315702,158545.6940680255,767.9879450193823,661.9118418140135,109.32663612187906,42.0,86.25279999999998,84.561195,,88.0
815,32.6,-151381.09627834556,154225.95018480445,958.8941358633833,555.4583394610963,240.08164505502785,42.0,86.288,84.91895,,88.0
816,32.64,-140178.11560526286,160247.99288357337,611.6449313795185,798.8953426700749,270.54027404959345,42.0,86.32319999999999,84.91895,,88.0
817,32.68,-154518.82355646728,151079.4709346925,763.7537899899156,561.0924808644269,176.0,42.0,86.35839999999999,84.91895,,88.0
818,32.72,-161174.5727427474,142822.96280361578,721.3744182390858,694.6255817609142,176.68720911954293,42.0,86.39359999999999,84.91895,,88.0
819,32.76,-165016.4286517053,135429.0506192961,732.3552439351816,673.7045122516773,181.3492683164957,42.0,86.4288,84.91895,,88.0
820,32.8,-173023.57745996088,123640.98035061595,688.7281036093683,610.8709824203264,151.34562072187367,42.0,86.464,84.91895,,88.0
821,32.84,-168190.07039703545,123365.42650398737,658.0707598218983,688.0,148.15367777287778,42.0,86.4992,84.91895,,88.0
822,32.88,-166362.9945154247,123458.15580512128,730.7353424389069,692.5589040648447,196.60785387531263,42.0,86.5344,84.91895,,88.0
823,32.92,-173374.32521065162,114883.92815759983,757.813089307713,745.9376964359043,202.82154082051676,42.0,86.56960000000001,84.91895,,88.0
824,32.96,-182104.46115106216,100155.75669642078,677.9514893826018,715.6103343912896,188.29264437391402,42.0,86.6048,84.91895,,88.0
825,33.0,-187465.09131931496,87604.35617266901,653.3850836988817,660.831050219329,192.83105021932897,42.0,86.64,85.256065,,88.0
826,33.04,-193831.10447845084,76748.33726230127,673.0697560855529,676.0115853208231,203.4651219572236,42.0,86.6752,85.256065,,88.0
827,33.08,-197841.50924056058,68754.79252599216,686.1608510848056,731.2117933220595,196.78820667794048,42.0,86.71040256,85.256065,,88.0
828,33.12,-197282.87372443083,64563.53477782252,659.5054988635922,718.7637471589802,209.97800454563162,42.0,86.74561024,85.256065,,88.0
829,33.160000000000004,-197316.6368900736,61121.610026900016,655.3642649997397,700.7209139285156,240.9612185713542,42.0,86.78082560000001,85.256065,,88.0
830,33.2,-200759.49794324822,55675.85445365702,705.9029658065549,708.7379468101966,255.76699620072833,42.0,86.8160512,85.256065,,88.0
831,33.24,-205371.8803627412,49029.86970849232,670.6780807492574,648.94976399604,248.69520187314376,42.0,86.8512896,85.256065,,88.0
832,33.28,-209112.2651227668,41668.353861824005,651.8348896795353,523.739011467183,192.21304942664085,42.0,86.88654336000002,85.256065,,88.0
833,33.32,-212622.25059194246,33371.2571746237,724.203835552958,450.00182645378953,194.79890412772627,42.0,86.92181504,85.256065,,88.0
834,33.36,-214541.0267506739,26088.43890567073,808.3778826416856,488.57102817065464,168.76417369962374,42.0,86.95710719999998,85.256065,,88.0
835,33.4,-210975.0138839211,22949.732572628105,895.8163234202758,500.73470631889677,103.63264684055163,42.0,86.99242239999998,85.57467,,88.0
836,33.44,-209244.78663604867,20170.83429298314,891.6360212664941,515.4540318997412,95.6360212664941,42.0,87.02776319999998,85.57467,,88.0
837,33.480000000000004,-209335.29644244298,16488.838629879567,883.5101369954135,502.8569863226316,86.3671233180451,42.0,87.06313215999998,85.57467,,88.0
838,33.52,-203928.14753534485,16991.872130617954,874.9171950640838,478.6101218994434,46.15756101215758,42.0,87.09853183999999,85.57467,,88.0
839,33.56,-197940.1211520375,21350.697783137868,944.5688754498597,545.9393312674706,4.9229178328101035,42.0,87.13396479999999,85.57467,,88.0
840,33.6,-201876.91767915647,18531.966013116988,860.6737803809526,595.3323170884354,128.92865860680254,42.0,87.16943359999999,85.57467,,88.0
841,33.64,-206202.6276818283,9821.367088617097,992.7640792239383,578.7181734518917,38.05844753436302,42.0,87.20494079999999,85.57467,,88.0
842,33.68,-192169.59642587655,15620.310346279399,891.7029963076342,658.0902205811707,-15.702996307634129,42.0,87.24048896,85.57467,,88.0
843,33.72,-172426.00220454572,30058.77735659866,753.491058601465,593.4438995403456,125.06504185818936,42.0,87.27608063999999,85.57467,,88.0
844,33.76,-157806.9541969056,41031.31916128309,806.5066260931969,502.4889565113384,164.7964660836283,42.0,87.3117184,85.57467,,88.0
845,33.8,-136971.44231223644,62516.69472287422,744.3011408069741,601.6644866368616,198.49672995529247,41.0,87.3474048,85.87634,,88.0
846,33.84,-96905.04243380525,101360.18800370392,590.2280577966845,673.4323228692972,304.8753084201261,41.0,87.38314240000001,85.87634,,88.0
847,33.88,-61980.495923166716,131753.59464072966,702.1755132158446,739.93904199709,345.24434992659684,41.0,87.41893376000002,85.87634,,88.0
848,33.92,-43169.48869489608,139202.83514876597,817.4991782114386,518.2732420983742,195.88091324816375,41.0,87.45478144000002,85.87634,,88.0
849,33.96,-18580.601988615377,153398.7606979028,652.5455597528318,403.05766951783596,186.06574269450536,41.0,87.49068800000002,85.87634,,88.0
850,34.0,-7755.504576101672,156950.704269255,698.0060974157801,328.2134146187,30.890243982759916,41.0,87.52665600000005,85.87634,,88.0
851,34.04,-3965.1984223082072,155715.27428593166,885.2758661596428,350.01045576670975,-72.92790266155835,41.0,87.56268800000004,85.87634,,88.0
852,34.08,-185.4000152349472,155442.4540432926,1015.1613710208059,555.7733435191367,-167.18403666889222,41.0,87.59878144000004,85.87634,,88.0
853,34.12,19398.913134831495,156540.4661852951,867.559176288244,516.330617783817,-23.62215110420908,41.0,87.63493376000004,85.87634,,88.0
854,34.160000000000004,19500.65223655125,147717.2841176923,756.8300074198613,599.9703568778621,71.79249814503466,41.0,87.67114240000005,85.87634,,88.0
855,34.2,-15240.892000319203,125232.01687397697,979.761882894222,592.0085041823493,16.059529276444508,41.0,87.70740480000003,86.16293,,88.0
856,34.24,-47857.548467759494,108254.59782143198,864.4131507750153,524.2421918336297,39.91452052930718,41.0,87.74371840000005,86.16293,,88.0
857,34.28,-78437.9802505604,88124.5850461867,788.3452439616184,472.2362195526863,-7.781951182135721,41.0,87.78008064000004,86.16293,,88.0
858,34.32,-104839.88396420311,63181.042817960806,863.4081824503924,460.09344487625384,-11.96885170791539,41.0,87.81648896000003,86.16293,,88.0
859,34.36,-117282.7844043677,43537.19295290927,844.2057838816439,503.5472754603833,15.711902565698463,41.0,87.85294080000003,86.16293,,88.0
860,34.4,-118296.88140173811,32030.96982600694,855.8646341369646,464.4512195434512,0.18048781738048625,41.0,87.88943360000003,86.16293,,88.0
861,34.44,-105076.99605911062,29499.230397039813,737.8310031331057,487.63379937337885,-7.877933124459624,41.0,87.92596480000003,86.16293,,88.0
862,34.480000000000004,-91636.30496103306,32517.071680735924,920.798415694451,535.1825742198598,7.72752473995328,41.0,87.96253184000003,86.16293,,88.0
863,34.52,-84360.23948812314,39331.43877694487,845.5610350702451,524.2341552605368,78.59506843677939,41.0,87.99913216000002,86.16293,,88.0
864,34.56,-83431.73936136237,45233.212141496406,898.7674885405797,508.35214613126294,134.76748854057973,41.0,88.0357632,86.16293,,88.0
865,34.6,-83784.68797534867,52042.212018979946,771.2347032999339,504.0980213121192,93.07823443331131,41.0,88.07242240000001,86.43711,,88.0
866,34.64,-81267.1459274021,60261.852148867845,744.6302513516957,465.0504189194928,-9.268910809318626,41.0,88.10910720000001,86.43711,,88.0
867,34.68,-75035.36298824876,71323.15493794557,879.9768644256498,514.5056925009557,38.50569250095562,41.0,88.14581504,86.43711,,88.0
868,34.72,-56135.73744095706,90645.32750930708,825.8297030175812,469.463762414065,121.43841577538623,41.0,88.18254336,86.43711,,88.0
869,34.76,-35232.57208053708,113341.99297512915,785.2892612653749,429.2892612653748,116.25785225307496,41.0,88.21928960000001,86.43711,,88.0
870,34.800000000000004,-16351.182993608767,133722.7787073415,834.1191488951897,470.4085106036221,4.195744772269009,41.0,88.2560512,86.43711,,88.0
871,34.84,7421.9104833026795,154424.79395619122,893.6767122813555,472.0,73.05716888971706,41.0,88.29282560000001,86.43711,,88.0
872,34.88,33152.87772171812,180580.5171720647,776.8389322112117,468.1560945874584,95.21952706270778,41.0,88.32961024000002,86.43711,,88.0
873,34.92,50023.18193218198,201660.5489499988,932.7948934841663,464.1715501551389,23.259452947639048,41.0,88.36640256000003,86.43711,,88.0
874,34.96,49302.173517171104,205848.38270655225,855.9995130073715,490.72742767947267,119.27330280946995,41.0,88.40320000000003,86.43711,,88.0
875,35.0,52859.327491265096,218680.78369087802,878.6778369922267,552.9779131250897,78.26656515618271,42.0,88.44000000000003,86.70186,,88.0
876,35.04,63607.06453869071,240969.3065978556,842.0161217047688,487.6290190685838,170.95969573807807,42.0,88.47680000000003,86.70186,,88.0
877,35.08,70632.64797021587,256313.57131227592,752.8702588251011,495.36474884889986,107.81150690660085,42.0,88.51359488000004,86.70186,,88.0
